Counter	Acc_X	Acc_Y	Acc_Z	Gyr_X	Gyr_Y	Gyr_Z	Mag_X	Mag_Y	Mag_Z	tmp
60948	-4.905900478363037100	0.738784730434417720	-8.366147994995117200	-0.022730508819222450	-0.001781145227141678	-0.263833343982696530	-0.225021317601203920	0.017924271523952484	0.477642267942428590	
60949	-4.891274452209472700	0.744357407093048100	-8.373723983764648400	-0.052793104201555252	-0.008507193997502327	-0.254870384931564330	-0.223839581012725830	0.018109584227204323	0.475875049829483030	
60950	-4.919021129608154300	0.746077120304107670	-8.372930526733398400	-0.062602907419204712	0.016628725454211235	-0.254711300134658810	-0.224979758262634280	0.018252678215503693	0.476088076829910280	
60951	-4.913198471069335900	0.748018443584442140	-8.358585357666015600	-0.054814212024211884	0.011110422201454639	-0.247162550687789920	-0.225171461701393130	0.017696293070912361	0.477244675159454350	
60952	-4.911757469177246100	0.744229733943939210	-8.380397796630859400	-0.067925944924354553	0.003468089271336794	-0.252521365880966190	-0.224800854921340940	0.018076656386256218	0.477003335952758790	
60953	-4.891239166259765600	0.744366049766540530	-8.371914863586425800	-0.060613371431827545	0.011589852161705494	-0.306010067462921140	-0.223476082086563110	0.018748123198747635	0.475505471229553220	
60954	-4.895019531250000000	0.784999549388885500	-8.365858078002929700	-0.059237323701381683	0.015504463575780392	-0.250413089990615840	-0.223454490303993230	0.018476556986570358	0.475893944501876830	
60955	-4.889384269714355500	0.781349122524261470	-8.362441062927246100	-0.067528560757637024	0.012076475657522678	-0.236167937517166140	-0.223176717758178710	0.017317976802587509	0.476286470890045170	
60956	-4.882273197174072300	0.766523778438568120	-8.380930900573730500	-0.038508631289005280	0.008956059813499451	-0.244049713015556340	-0.223753020167350770	0.017400540411472321	0.477431774139404300	
60957	-4.886008262634277300	0.759103238582611080	-8.384543418884277300	-0.049062725156545639	0.009198276326060295	-0.276676088571548460	-0.225243970751762390	0.017511762678623199	0.475941568613052370	
60958	-4.889595508575439500	0.788692057132720950	-8.371392250061035200	-0.039628356695175171	-0.013993156142532825	-0.248494192957878110	-0.224573507905006410	0.017467902973294258	0.476488798856735230	
60959	-4.871207714080810500	0.803540468215942380	-8.373522758483886700	-0.048637866973876953	0.035289991647005081	-0.257002651691436770	-0.225713267922401430	0.018491178750991821	0.476708471775054930	
60960	-4.867230415344238300	0.774047017097473140	-8.366770744323730500	-0.048566892743110657	0.011214762926101685	-0.257052570581436160	-0.224452257156372070	0.017848402261734009	0.476366877555847170	
60961	-4.889369487762451200	0.762866139411926270	-8.366298675537109400	-0.043225720524787903	0.015626152977347374	-0.259258627891540530	-0.225028976798057560	0.017050784081220627	0.477505534887313840	
60962	-4.907751560211181600	0.784992396831512450	-8.354642868041992200	-0.018360827118158340	0.005867452826350927	-0.261706620454788210	-0.225735157728195190	0.018134044483304024	0.476315259933471680	
60963	-4.911396026611328100	0.788685977458953860	-8.350872993469238300	-0.035224847495555878	-0.036967437714338303	-0.248606175184249880	-0.224672302603721620	0.018576201051473618	0.477012455463409420	
60964	-4.898462772369384800	0.775801837444305420	-8.355018615722656200	-0.024641878902912140	0.017802115529775620	-0.251789659261703490	-0.223931327462196350	0.018833966925740242	0.476525992155075070	
60965	-4.867126464843750000	0.759283185005187990	-8.365152359008789100	-0.037524715065956116	0.028663346543908119	-0.246173679828643800	-0.224352911114692690	0.017871767282485962	0.475851744413375850	
60966	-4.863759994506835900	0.731488883495330810	-8.389136314392089800	-0.026678752154111862	0.013390791602432728	-0.246288374066352840	-0.225286737084388730	0.018935078755021095	0.475171267986297610	
60967	-4.887524604797363300	0.733294904232025150	-8.373970031738281200	-0.044380113482475281	0.020021261647343636	-0.261390745639801030	-0.224359720945358280	0.018758645281195641	0.475728243589401250	
60968	-4.900381088256835900	0.729559957981109620	-8.370039939880371100	-0.048675131052732468	-0.010612052865326405	-0.263627350330352780	-0.226570725440979000	0.016957392916083336	0.475102603435516360	
60969	-4.886062145233154300	0.755392789840698240	-8.388209342956543000	-0.028805920854210854	-0.009583815932273865	-0.247453257441520690	-0.226247891783714290	0.019153630360960960	0.476301431655883790	
60970	-4.884211540222168000	0.762796163558959960	-8.386356353759765600	-0.047435753047466278	-0.001910049119032919	-0.256001442670822140	-0.224772140383720400	0.017546914517879486	0.477520018815994260	
60971	-4.882249832153320300	0.746194183826446530	-8.384813308715820300	-0.043047931045293808	0.015572646632790565	-0.251608163118362430	-0.224744454026222230	0.019146114587783813	0.475715041160583500	
60972	-4.889599323272705100	0.766507267951965330	-8.377107620239257800	-0.051698800176382065	0.025380732491612434	-0.250430762767791750	-0.225387051701545720	0.016899866983294487	0.475671231746673580	
60973	-4.907873630523681600	0.796054422855377200	-8.358118057250976600	-0.043741930276155472	0.008874204009771347	-0.237488552927970890	-0.224188536405563350	0.017583394423127174	0.476505815982818600	
60974	-4.885701656341552700	0.792454123497009280	-8.360590934753418000	-0.052682500332593918	-0.015105862170457840	-0.251661121845245360	-0.225486040115356450	0.017630945891141891	0.476192057132720950	
60975	-4.895034790039062500	0.803482532501220700	-8.361999511718750000	-0.048646043986082077	0.001401756191626191	-0.261472612619400020	-0.226134419441223140	0.018409162759780884	0.476040869951248170	
60976	-4.889545440673828100	0.770217716693878170	-8.373440742492675800	-0.060064457356929779	0.000114773094537668	-0.241712972521781920	-0.224566087126731870	0.017838429659605026	0.476621776819229130	
60977	-4.871284484863281200	0.766548454761505130	-8.386667251586914100	-0.055302239954471588	0.035330828279256821	-0.263457000255584720	-0.224837884306907650	0.016349766403436661	0.476339459419250490	
60978	-4.876681804656982400	0.764711201190948490	-8.379299163818359400	-0.047828048467636108	-0.005061360541731119	-0.272372037172317500	-0.226769238710403440	0.017287883907556534	0.476135700941085820	
60979	-4.904283046722412100	0.788650453090667720	-8.365553855895996100	-0.020528310909867287	0.004772393964231014	-0.261693149805068970	-0.226734489202499390	0.018503168597817421	0.474458009004592900	
60980	-4.889878273010253900	0.796017646789550780	-8.383961677551269500	-0.050483301281929016	-0.004172214306890965	-0.248375132679939270	-0.224979698657989500	0.018378417938947678	0.476089030504226680	
60981	-4.878723144531250000	0.783142387866973880	-8.384437561035156200	-0.053301397711038589	0.006969644688069820	-0.273393899202346800	-0.225799575448036190	0.019703185185790062	0.475155532360076900	
60982	-4.893631458282470700	0.784895300865173340	-8.389430999755859400	-0.034004952758550644	-0.008213775232434273	-0.282336115837097170	-0.226483136415481570	0.018385935574769974	0.476675420999526980	
60983	-4.882352828979492200	0.768352985382080080	-8.384526252746582000	-0.039872374385595322	-0.007349576801061630	-0.257179290056228640	-0.225199878215789790	0.018854737281799316	0.476732701063156130	
60984	-4.891149997711181600	0.748085200786590580	-8.366438865661621100	-0.052775964140892029	-0.012887638062238693	-0.254887849092483520	-0.225186243653297420	0.017080981284379959	0.476979702711105350	
60985	-4.891398906707763700	0.740629613399505620	-8.381010055541992200	-0.028565181419253349	0.012196395546197891	-0.235377594828605650	-0.225464314222335820	0.017610860988497734	0.476582407951354980	
60986	-4.904749393463134800	0.751563072204589840	-8.398600578308105500	-0.067660436034202576	0.020876014605164528	-0.239384278655052190	-0.223054498434066770	0.019710322842001915	0.476179689168930050	
60987	-4.904618263244628900	0.738654494285583500	-8.395149230957031200	-0.063604280352592468	0.002394801238551736	-0.252555489540100100	-0.226618736982345580	0.018270306289196014	0.476538985967636110	
60988	-4.893617630004882800	0.759017407894134520	-8.395194053649902300	-0.050001800060272217	0.013523373752832413	-0.270109027624130250	-0.225720494985580440	0.018497874960303307	0.476578354835510250	
60989	-4.886229991912841800	0.814508855342864990	-8.382016181945800800	-0.037880830466747284	0.006925140973180533	-0.262646615505218510	-0.225672721862792970	0.016681998968124390	0.475138157606124880	
60990	-4.893681526184082000	0.803369641304016110	-8.387382507324218700	-0.064809843897819519	-0.008499926887452602	-0.259178906679153440	-0.224957868456840520	0.018609814345836639	0.476481288671493530	
60991	-4.890007495880127000	0.762710094451904300	-8.398867607116699200	-0.045425739139318466	0.011269185692071915	-0.260340720415115360	-0.224616989493370060	0.017382333055138588	0.475707143545150760	
60992	-4.874717712402343700	0.762899100780487060	-8.373946189880371100	-0.034567706286907196	0.013468066230416298	-0.259338706731796260	-0.224495813250541690	0.017637092620134354	0.475584268569946290	
60993	-4.867743968963623000	0.777618765830993650	-8.392054557800293000	-0.051814217120409012	0.015585856512188911	-0.255920857191085820	-0.225686907768249510	0.017324091866612434	0.474882662296295170	
60994	-4.867941856384277300	0.759083747863769530	-8.406768798828125000	-0.068993061780929565	-0.006369565147906542	-0.252550035715103150	-0.225885421037673950	0.017654584720730782	0.475915759801864620	
60995	-4.881929397583007800	0.753667175769805910	-8.366623878479003900	-0.035265322774648666	-0.006341798231005669	-0.246296867728233340	-0.225272431969642640	0.018544467166066170	0.475428670644760130	
60996	-4.889324188232421900	0.768423199653625490	-8.362607955932617200	-0.054869942367076874	-0.017290808260440826	-0.252719253301620480	-0.225287631154060360	0.017048971727490425	0.475157052278518680	
60997	-4.876544952392578100	0.788777232170104980	-8.366322517395019500	-0.103492431342601780	-0.002156051341444254	-0.247904792428016660	-0.225129783153533940	0.018276179209351540	0.475692361593246460	
60998	-4.874646663665771500	0.762916445732116700	-8.370327949523925800	-0.055240433663129807	0.026560001075267792	-0.262392342090606690	-0.226548582315444950	0.017817489802837372	0.475499600172042850	
60999	-4.864028453826904300	0.773942530155181880	-8.392205238342285200	-0.042088855057954788	0.019992262125015259	-0.255988150835037230	-0.226222187280654910	0.016603399068117142	0.474465221166610720	
61000	-4.878674983978271500	0.749878227710723880	-8.390295982360839800	-0.064610801637172699	-0.003100392175838351	-0.250390529632568360	-0.226006060838699340	0.018531486392021179	0.476047158241271970	
61001	-4.876818180084228500	0.740645229816436770	-8.392276763916015600	-0.043331604450941086	-0.010566174983978271	-0.265861183404922490	-0.226164400577545170	0.016298357397317886	0.475504279136657710	
61002	-4.904143333435058600	0.773895263671875000	-8.362126350402832000	-0.035799864679574966	-0.008351741358637810	-0.268133997917175290	-0.225321546196937560	0.017594054341316223	0.476848006248474120	
61003	-4.878552913665771500	0.792427241802215580	-8.373461723327636700	-0.046347286552190781	0.009019028395414352	-0.254912585020065310	-0.225364908576011660	0.017759965732693672	0.476068228483200070	
61004	-4.856521606445312500	0.796187162399291990	-8.381266593933105500	-0.054981354624032974	0.000242929250816815	-0.254866003990173340	-0.225386440753936770	0.018157271668314934	0.475680708885192870	
61005	-4.874677658081054700	0.792487502098083500	-8.364517211914062500	-0.061179559677839279	-0.023928795009851456	-0.246159568428993230	-0.226306214928627010	0.018327008932828903	0.475253850221633910	
61006	-4.854475021362304700	0.814730584621429440	-8.366603851318359400	-0.038669988512992859	0.013378779403865337	-0.250620573759078980	-0.225237086415290830	0.016750626266002655	0.476066023111343380	
61007	-4.878719329833984400	0.805327177047729490	-8.378722190856933600	-0.046590816229581833	-0.001829574815928936	-0.265862673521041870	-0.224323898553848270	0.017970727756619453	0.476373165845870970	
61008	-4.897117137908935500	0.784930408000946040	-8.378472328186035200	-0.039366982877254486	0.024906918406486511	-0.320368200540542600	-0.225984469056129460	0.018259922042489052	0.476435631513595580	
61009	-4.887958049774169900	0.796043395996093750	-8.380394935607910200	-0.048430651426315308	-0.021619936451315880	-0.254991769790649410	-0.225479096174240110	0.016995549201965332	0.476317435503005980	
61010	-4.889947891235351600	0.803395211696624760	-8.385675430297851600	-0.062555268406867981	0.017711339518427849	-0.252572804689407350	-0.225515231490135190	0.017154764384031296	0.475667774677276610	
61011	-4.885951995849609400	0.777603566646575930	-8.377066612243652300	-0.028424492105841637	0.001580355921760202	-0.274713009595870970	-0.226812005043029790	0.018711199983954430	0.475365400314331050	
61012	-4.876826286315918000	0.803497731685638430	-8.376988410949707000	-0.037614695727825165	0.000276230566669256	-0.252842456102371220	-0.224701136350631710	0.018854463472962379	0.476493865251541140	
61013	-4.878585338592529300	0.814603328704833980	-8.369555473327636700	-0.041955750435590744	0.006824067793786526	-0.252795010805130000	-0.224931865930557250	0.016688283532857895	0.474649786949157710	
61014	-4.882444858551025400	0.803455054759979250	-8.380453109741210900	-0.027588164433836937	0.012235665693879128	-0.239802420139312740	-0.226369917392730710	0.017138505354523659	0.476411044597625730	
61015	-4.882200241088867200	0.781330943107604980	-8.373502731323242200	-0.048475209623575211	-0.004117395728826523	-0.254925340414047240	-0.226185694336891170	0.017198625952005386	0.475120544433593750	
61016	-4.867477416992187500	0.781381249427795410	-8.377531051635742200	-0.042033839970827103	0.013410708867013454	-0.254925906658172610	-0.225145280361175540	0.016151983290910721	0.475416034460067750	
61017	-4.882499694824218700	0.792349636554718020	-8.386024475097656200	-0.033752135932445526	0.009191603399813175	-0.270291686058044430	-0.224873721599578860	0.017137683928012848	0.475694537162780760	
61018	-4.882659912109375000	0.788613140583038330	-8.395119667053222700	-0.035979405045509338	0.010301928035914898	-0.272446602582931520	-0.226156383752822880	0.017926286906003952	0.475646704435348510	
61019	-4.864007949829101600	0.792434215545654300	-8.386537551879882800	-0.061314545571804047	0.000171965206391178	-0.248263180255889890	-0.225870519876480100	0.018521375954151154	0.476182639598846440	
61020	-4.869661808013916000	0.792382836341857910	-8.391811370849609400	-0.026940705254673958	0.010200363583862782	-0.257256269454956050	-0.225493147969245910	0.017889121547341347	0.476063817739486690	
61021	-4.874778747558593700	0.768430173397064210	-8.375684738159179700	-0.035239405930042267	-0.017278583720326424	-0.246342062950134280	-0.224852368235588070	0.016363156959414482	0.476079225540161130	
61022	-4.891480445861816400	0.788674950599670410	-8.373149871826171900	-0.044860050082206726	0.018725777044892311	-0.237439885735511780	-0.226718142628669740	0.018121201545000076	0.477053195238113400	
61023	-4.878927230834960900	0.781243801116943360	-8.395318031311035200	-0.050513911992311478	-0.015090081840753555	-0.250575751066207890	-0.226520165801048280	0.016659045591950417	0.476011544466018680	
61024	-4.862056732177734400	0.762888967990875240	-8.388780593872070300	-0.029675431549549103	0.002367294859141111	-0.237596437335014340	-0.224594801664352420	0.018368171527981758	0.476105064153671260	
61025	-4.877004623413085900	0.796059489250183110	-8.387940406799316400	-0.030096614733338356	-0.001865110360085964	-0.255088359117507930	-0.225999608635902400	0.016890168190002441	0.476164966821670530	
61026	-4.871511936187744100	0.784979462623596190	-8.393665313720703100	-0.041935201734304428	-0.006293365731835365	-0.252807497978210450	-0.225984409451484680	0.018385661765933037	0.476436585187911990	
61027	-4.888198852539062500	0.786741256713867190	-8.394989013671875000	0.001352642197161913	-0.010536269284784794	-0.253197610378265380	-0.225940734148025510	0.018848452717065811	0.477221101522445680	
61028	-4.891428947448730500	0.777595520019531250	-8.373293876647949200	-0.021978281438350677	-0.019517946988344193	-0.235564455389976500	-0.225742638111114500	0.017637778073549271	0.476181358098983760	
61029	-4.886183261871337900	0.773849725723266600	-8.389780044555664100	-0.057060647755861282	-0.004162258468568325	-0.251570969820022580	-0.224744692444801330	0.018643151968717575	0.475711256265640260	
61030	-4.882486820220947300	0.759076833724975590	-8.393692970275878900	-0.052720338106155396	-0.009617882780730724	-0.251612097024917600	-0.224837288260459900	0.017607171088457108	0.476348936557769780	
61031	-4.889826774597168000	0.784938216209411620	-8.384105682373046900	-0.058317702263593674	0.021033097058534622	-0.255856126546859740	-0.225491940975189210	0.020403929054737091	0.476082772016525270	
61032	-4.876828670501709000	0.788707911968231200	-8.380798339843750000	-0.059419393539428711	0.000265867216512561	-0.259185701608657840	-0.225023850798606870	0.016909705474972725	0.475296944379806520	
61033	-4.876918792724609400	0.777593851089477540	-8.388178825378418000	-0.056155167520046234	0.011203159578144550	-0.256988465785980220	-0.226647987961769100	0.017668385058641434	0.476013779640197750	
61034	-4.879059314727783200	0.786757469177246090	-8.400673866271972700	-0.039952304214239120	0.017824526876211166	-0.257115125656127930	-0.227860629558563230	0.017752690240740776	0.474924653768539430	
61035	-4.874969482421875000	0.794264733791351320	-8.378968238830566400	-0.045205108821392059	0.005724725779145956	-0.252751767635345460	-0.226219594478607180	0.017743706703186035	0.476811498403549190	
61036	-4.866012573242187500	0.818268954753875730	-8.387960433959960900	-0.054956827312707901	0.028658801689743996	-0.250434279441833500	-0.226497188210487370	0.019279507920145988	0.476421803236007690	
61037	-4.871181964874267600	0.798000752925872800	-8.373595237731933600	-0.023544028401374817	-0.000046096702135401	-0.209327250719070430	-0.226428180932998660	0.016437625512480736	0.475364416837692260	
61038	-4.871262550354003900	0.792435050010681150	-8.379095077514648400	-0.027060743421316147	-0.021464722231030464	-0.266080647706985470	-0.226398512721061710	0.017919728532433510	0.475896239280700680	
61039	-4.867670536041259800	0.792425930500030520	-8.384625434875488300	-0.032978296279907227	0.004561806563287973	-0.239768683910369870	-0.226718455553054810	0.017492499202489853	0.477048456668853760	
61040	-4.861932277679443400	0.766616761684417720	-8.381495475769043000	-0.051411826163530350	0.000144872275996022	-0.241782307624816890	-0.225877583026885990	0.018905293196439743	0.476055353879928590	
61041	-4.875017166137695300	0.773917794227600100	-8.386468887329101600	-0.034560151398181915	0.008004027418792248	-0.259363830089569090	-0.225456237792968750	0.019364530220627785	0.476725786924362180	
61042	-4.885936260223388700	0.766515493392944340	-8.379018783569335900	-0.082098774611949921	0.004553974606096745	-0.256776273250579830	-0.225013777613639830	0.018546279519796371	0.477777123451232910	
61043	-4.872992992401123000	0.759179770946502690	-8.381283760070800800	-0.037886988371610641	-0.000726022408343852	-0.263712972402572630	-0.225658133625984190	0.016920089721679688	0.475400298833847050	
61044	-4.852935314178466800	0.759203433990478520	-8.396322250366210900	-0.052746992558240891	0.000230174176977016	-0.251579701900482180	-0.225701555609703060	0.016960261389613152	0.474619567394256590	
61045	-4.862091064453125000	0.770275235176086430	-8.388685226440429700	-0.068060249090194702	0.041775804013013840	-0.253511726856231690	-0.225999608635902400	0.016890168190002441	0.476164966821670530	
61046	-4.878784179687500000	0.788673400878906250	-8.386175155639648400	-0.050791990011930466	0.009048497304320335	-0.259232938289642330	-0.227226346731185910	0.017742304131388664	0.474821299314498900	
61047	-4.867557048797607400	0.783210456371307370	-8.381126403808593800	-0.041031595319509506	-0.007327930070459843	-0.260453790426254270	-0.225742638111114500	0.017637778073549271	0.476181358098983760	
61048	-4.871456146240234400	0.803479731082916260	-8.386188507080078100	-0.041853953152894974	-0.013974267058074474	-0.250666677951812740	-0.224273711442947390	0.016917938366532326	0.477276444435119630	
61049	-4.876895904541015600	0.810875296592712400	-8.378701210021972700	-0.050661887973546982	-0.006300486624240875	-0.256028383970260620	-0.225643947720527650	0.016277998685836792	0.475655794143676760	
61050	-4.893379688262939500	0.807140767574310300	-8.371049880981445300	-0.050070170313119888	-0.022896520793437958	-0.234266400337219240	-0.226057454943656920	0.017069468274712563	0.475124955177307130	
61051	-4.895406246185302700	0.807088971138000490	-8.380045890808105500	-0.052705075591802597	-0.001974396873265505	-0.250540941953659060	-0.224422633647918700	0.019204765558242798	0.476897776126861570	
61052	-4.874994277954101600	0.807199299335479740	-8.376991271972656200	-0.054924670606851578	-0.019453553482890129	-0.254937946796417240	-0.224382162094116210	0.017269846051931381	0.475326538085937500	
61053	-4.875188827514648400	0.810849130153656010	-8.385990142822265600	-0.041751950979232788	-0.001983572961762548	-0.245183080434799190	-0.225173324346542360	0.018064869567751884	0.474909752607345580	
61054	-4.867763996124267600	0.820133090019226070	-8.382457733154296900	-0.044017519801855087	-0.012888688594102859	-0.250658988952636720	-0.225215911865234380	0.015598878264427185	0.476447850465774540	
61055	-4.852647304534912100	0.788852512836456300	-8.374227523803710900	-0.044329155236482620	0.003608678467571735	-0.261487036943435670	-0.224288418889045720	0.016428368166089058	0.477012425661087040	
61056	-4.863843441009521500	0.764744400978088380	-8.385087013244628900	-0.046295564621686935	-0.031440984457731247	-0.257193565368652340	-0.224595218896865840	0.017487987875938416	0.476098448038101200	
61057	-4.871158599853515600	0.777671217918396000	-8.377476692199707000	-0.076317995786666870	-0.010856711305677891	-0.243792593479156490	-0.226270392537117000	0.017539091408252716	0.475898772478103640	
61058	-4.900677204132080100	0.762763440608978270	-8.376847267150878900	-0.044290166348218918	-0.012801252305507660	-0.261518120765686040	-0.226684242486953740	0.017576120793819427	0.475362211465835570	
61059	-4.911768913269043000	0.784897446632385250	-8.370824813842773400	-0.024331925436854362	-0.019462320953607559	-0.243187382817268370	-0.226605340838432310	0.015993589535355568	0.476782202720642090	
61060	-4.909901142120361300	0.788607716560363770	-8.369018554687500000	-0.054983638226985931	-0.017250761389732361	-0.257099300622940060	-0.223946109414100650	0.018218655139207840	0.476260989904403690	
61061	-4.905975341796875000	0.770193696022033690	-8.362122535705566400	-0.061387199908494949	-0.008557327091693878	-0.252638489007949830	-0.225173637270927430	0.017436167225241661	0.474905014038085940	
61062	-4.882129192352294900	0.781348288059234620	-8.369883537292480500	-0.059509277343750000	-0.004080436658114195	-0.263556689023971560	-0.224972710013389590	0.017868762835860252	0.476215362548828130	
61063	-4.847181320190429700	0.775917232036590580	-8.381786346435546900	-0.054652266204357147	-0.020636087283492088	-0.244006901979446410	-0.224794521927833560	0.016183855012059212	0.477119237184524540	
61064	-4.850620746612548800	0.788904309272766110	-8.365231513977050800	-0.067555986344814301	-0.006496496032923460	-0.239501237869262700	-0.223997369408607480	0.017008116468787193	0.475340694189071660	
61065	-4.841993331909179700	0.799887239933013920	-8.394294738769531300	-0.065457060933113098	-0.028321625664830208	-0.243955999612808230	-0.225401818752288820	0.016284557059407234	0.475406259298324580	
61066	-4.869292259216308600	0.773986518383026120	-8.377575874328613300	-0.050410814583301544	-0.028247596696019173	-0.248430386185646060	-0.226072043180465700	0.016831377521157265	0.474862813949584960	
61067	-4.838222026824951200	0.700094282627105710	-8.415592193603515600	-0.048579681664705276	-0.015002239495515823	-0.259245365858078000	-0.224944174289703370	0.016961799934506416	0.476729214191436770	
61068	-4.900546550750732400	0.688848853111267090	-8.388660430908203100	-0.050822090357542038	-0.021550627425312996	-0.263605952262878420	-0.226364731788635250	0.017123166471719742	0.474203407764434810	
61069	-4.837857246398925800	0.652118325233459470	-8.408976554870605500	-0.076720036566257477	-0.010715672746300697	-0.258948236703872680	-0.224818587303161620	0.015566595830023289	0.474386364221572880	
61070	-4.882621765136718800	0.688794672489166260	-8.418123245239257800	-0.111459307372570040	-0.010779554024338722	-0.263044059276580810	-0.225756928324699400	0.018028389662504196	0.475923955440521240	
61071	-4.916828632354736300	0.672223031520843510	-8.373938560485839800	-0.115328073501586910	-0.010959575884044170	-0.245549887418746950	-0.226314172148704530	0.016824821010231972	0.475112348794937130	
61072	-4.951696395874023400	0.736830830574035640	-8.343176841735839800	-0.154202312231063840	0.007470665499567986	-0.240853473544120790	-0.226371958851814270	0.017129862681031227	0.474073290824890140	
61073	-4.925952911376953100	0.829346776008605960	-8.328224182128906200	-0.130958288908004760	-0.019602006301283836	-0.267396748065948490	-0.225644558668136600	0.015020594932138920	0.475646346807479860	
61074	-4.882645130157470700	0.884747207164764400	-8.370353698730468700	-0.126387774944305420	0.002207936486229301	-0.254320114850997920	-0.225409179925918580	0.016039770096540451	0.475274264812469480	
61075	-4.883185386657714800	0.886463701725006100	-8.397470474243164100	-0.137342095375061040	-0.004330716561526060	-0.259698450565338130	-0.226185932755470280	0.016695663332939148	0.475116759538650510	
61076	-4.886913776397705100	0.862406790256500240	-8.404916763305664100	-0.130482509732246400	-0.012083073146641254	-0.245579868555068970	-0.225774541497230530	0.015769807621836662	0.473308891057968140	
61077	-4.954902172088623000	0.845561563968658450	-8.385140419006347700	-0.139544352889060970	-0.019633572548627853	-0.262969404458999630	-0.225753128528594970	0.015121021308004856	0.473694533109664920	
61078	-4.974750041961669900	0.884411156177520750	-8.349695205688476600	-0.130571156740188600	-0.008791600354015827	-0.249961420893669130	-0.227605998516082760	0.013596426695585251	0.474904119968414310	
61079	-4.986281871795654300	0.924924135208129880	-8.361526489257812500	-0.138371542096138000	-0.017480153590440750	-0.259772211313247680	-0.227912738919258120	0.014781787991523743	0.473991096019744870	
61080	-4.985560417175293000	0.891824722290039060	-8.333006858825683600	-0.110052973031997680	0.008769284933805466	-0.250093549489974980	-0.227450132369995120	0.014940730296075344	0.473102599382400510	
61081	-4.983648300170898400	0.954703032970428470	-8.314150810241699200	-0.130666851997375490	-0.004397091921418905	-0.254374206066131590	-0.227649793028831480	0.012882155366241932	0.474117696285247800	
61082	-5.007585048675537100	0.932434380054473880	-8.313771247863769500	-0.113226324319839480	0.006543657276779413	-0.247928991913795470	-0.228006288409233090	0.016000486910343170	0.472308039665222170	
61083	-4.965297222137451200	0.962147831916809080	-8.319996833801269500	-0.152398675680160520	0.008687156252563000	-0.256332278251647950	-0.229246363043785100	0.014988554641604424	0.473027676343917850	
61084	-4.945548057556152300	1.204270720481872600	-8.290286064147949200	-0.144011110067367550	0.008798234164714813	-0.268612056970596310	-0.228105455636978150	0.016354342922568321	0.472826004028320310	
61085	-4.891152381896972700	1.191763401031494100	-8.255753517150878900	-0.121781989932060240	0.010844078846275806	-0.245880126953125000	-0.227858200669288640	0.011953294277191162	0.472673445940017700	
61086	-4.826847076416015600	1.251114726066589400	-8.264020919799804700	-0.102356016635894780	-0.048105176538228989	-0.255002409219741820	-0.226937040686607360	0.014675584621727467	0.473122090101242070	
61087	-4.910099506378173800	1.228540778160095200	-8.269237518310546900	-0.043206978589296341	0.017784878611564636	-0.261841744184494020	-0.228656306862831120	0.013383715413510799	0.472131282091140750	
61088	-4.928173542022705100	1.123184680938720700	-8.273706436157226600	-0.064511492848396301	0.030724402517080307	-0.246256604790687560	-0.228385046124458310	0.013740713708102703	0.472405046224594120	
61089	-4.911790847778320300	0.988244950771331790	-8.321148872375488300	-0.052981913089752197	0.025430927053093910	-0.260432839393615720	-0.228163674473762510	0.015779202803969383	0.471780300140380860	
61090	-4.892024040222168000	0.997440695762634280	-8.348734855651855500	-0.048058893531560898	0.039466284215450287	-0.234256446361541750	-0.227863818407058720	0.015354979783296585	0.472568899393081670	
61091	-4.914411067962646500	0.986199140548706050	-8.360928535461425800	-0.044009149074554443	0.028643978759646416	-0.246314495801925660	-0.228938847780227660	0.015437818132340908	0.473953008651733400	
61092	-4.892408847808837900	0.973313987255096440	-8.374377250671386700	-0.046452417969703674	0.048410616815090179	-0.254945665597915650	-0.226623564958572390	0.012477605603635311	0.474157661199569700	
61093	-4.883390426635742200	0.991787195205688480	-8.381631851196289100	-0.048585850745439529	0.036372072994709015	-0.254978805780410770	-0.229041159152984620	0.013519703410565853	0.472116172313690190	
61094	-4.883548259735107400	1.002840518951416000	-8.386916160583496100	-0.035741124302148819	0.036459751427173615	-0.260552763938903810	-0.229667648673057560	0.014655056409537792	0.472358167171478270	
61095	-4.883228302001953100	1.010313510894775400	-8.368726730346679700	-0.034077305346727371	0.035533703863620758	-0.281303912401199340	-0.230008885264396670	0.015128095634281635	0.473126649856567380	
61096	-4.851086616516113300	0.988445937633514400	-8.339126586914062500	-0.027495255693793297	0.039886582642793655	-0.278057217597961430	-0.228718802332878110	0.014710019342601299	0.473307430744171140	
61097	-4.857316493988037100	1.043713450431823700	-8.359967231750488300	-0.055321171879768372	0.033148039132356644	-0.265883505344390870	-0.228556290268898010	0.014790223911404610	0.471626549959182740	
61098	-4.904695987701416000	0.984507560729980470	-8.337686538696289100	-0.030941633507609367	0.052697524428367615	-0.240899652242660520	-0.231606721878051760	0.014593946747481823	0.472016721963882450	
61099	-4.871704101562500000	1.032653093338012700	-8.341607093811035200	-0.003055969253182411	0.053960528224706650	-0.250993371009826660	-0.229975342750549320	0.013828571885824203	0.471430003643035890	
61100	-4.877892017364502000	1.017681837081909200	-8.377832412719726600	-0.047590505331754684	0.039682898670434952	-0.258271813392639160	-0.229638695716857910	0.014628276228904724	0.472878664731979370	
61101	-4.894533634185791000	0.910383641719818120	-8.404088973999023400	0.001481248647905886	0.039710551500320435	-0.242240950465202330	-0.230664879083633420	0.015158565714955330	0.472839653491973880	
61102	-4.853568077087402300	0.910638988018035890	-8.390742301940918000	-0.035738799721002579	0.044110462069511414	-0.259357571601867680	-0.230137676000595090	0.014125588349997997	0.473113715648651120	
61103	-4.876245498657226600	0.969575583934783940	-8.400218009948730500	-0.032931689172983170	0.015486054122447968	-0.236613258719444270	-0.229909300804138180	0.015654420480132103	0.472615301609039310	
61104	-4.831827163696289100	0.984577000141143800	-8.395829200744628900	-0.038293194025754929	0.048609193414449692	-0.274654686450958250	-0.228810369968414310	0.015811622142791748	0.473961204290390010	
61105	-4.871034145355224600	0.973216056823730470	-8.416608810424804700	-0.028097167611122131	0.052865441888570786	-0.255085468292236330	-0.230786234140396120	0.014526585116982460	0.472959667444229130	
61106	-4.820650577545166000	0.936582386493682860	-8.403996467590332000	-0.007703030481934547	0.037674169987440109	-0.264002412557601930	-0.231269836425781250	0.015896612778306007	0.473469167947769170	
61107	-4.839828491210937500	0.969605922698974610	-8.430193901062011700	-0.016269786283373833	0.019043631851673126	-0.261830717325210570	-0.231355369091033940	0.014476713724434376	0.474234133958816530	
61108	-4.831886291503906200	0.943891942501068120	-8.409021377563476600	-0.017251191660761833	0.026651779189705849	-0.257415056228637700	-0.230942472815513610	0.016694366931915283	0.472449928522109990	
61109	-4.821074962615966800	0.943873286247253420	-8.423804283142089800	0.000947775493841618	0.063943877816200256	-0.260728389024734500	-0.229188829660415650	0.014180551283061504	0.474062949419021610	
61110	-4.826286315917968700	0.940232813358306880	-8.407413482666015600	-0.022882610559463501	0.028894523158669472	-0.266082793474197390	-0.229978546500205990	0.017993342131376266	0.473668903112411500	
61111	-4.794740676879882800	0.901581346988677980	-8.412406921386718800	-0.022622535005211830	0.032088555395603180	-0.255131632089614870	-0.229494899511337280	0.016749056056141853	0.473160356283187870	
61112	-4.746181964874267600	0.852004647254943850	-8.401720046997070300	-0.010207434184849262	0.006808292586356401	-0.237819403409957890	-0.230598881840705870	0.016858674585819244	0.474023967981338500	
61113	-4.764996528625488300	0.829657316207885740	-8.423207283020019500	-0.024886749684810638	0.026651678606867790	-0.259427905082702640	-0.231376722455024720	0.015251241624355316	0.473849445581436160	
61114	-4.853835582733154300	0.784864544868469240	-8.435794830322265600	-0.012792233377695084	0.028812890872359276	-0.250765055418014530	-0.231747508049011230	0.014493657276034355	0.474087953567504880	
61115	-4.818823337554931600	0.796087265014648440	-8.440244674682617200	-0.042416226118803024	0.011371612548828125	-0.269113510847091670	-0.231761083006858830	0.016393152996897697	0.473841905593872070	
61116	-4.828137874603271500	0.810817480087280270	-8.439796447753906200	-0.043858345597982407	-0.023854868486523628	-0.244133442640304570	-0.231276467442512510	0.017160711809992790	0.473348528146743770	
61117	-4.827886104583740200	0.833062946796417240	-8.421415328979492200	-0.055838778614997864	0.008923648856580257	-0.243949621915817260	-0.230072289705276490	0.014568294398486614	0.474288582801818850	
61118	-4.830814838409423800	0.881299495697021480	-8.370028495788574200	-0.059079349040985107	0.000151685366290621	-0.246176436543464660	-0.231526792049407960	0.015149002894759178	0.473452776670455930	
61119	-4.796771526336669900	0.932955861091613770	-8.413758277893066400	-0.061388317495584488	0.024257130920886993	-0.248301967978477480	-0.232253476977348330	0.014500626362860203	0.474196672439575200	
61120	-4.813177108764648400	0.973608195781707760	-8.391057968139648400	-0.083377182483673096	0.028673145920038223	-0.262316614389419560	-0.231175005435943600	0.017318459227681160	0.475172102451324460	
61121	-4.787447452545166000	0.977384984493255620	-8.398965835571289100	-0.054847754538059235	0.011139455251395702	-0.248437672853469850	-0.231006711721420290	0.014374201186001301	0.473598629236221310	
61122	-4.811824798583984400	0.912489295005798340	-8.431704521179199200	-0.050181083381175995	0.006676525343209505	-0.234253957867622380	-0.232244923710823060	0.017260218039155006	0.474347621202468870	
61123	-4.798453330993652300	0.866436421871185300	-8.421805381774902300	-0.052806284278631210	0.009005360305309296	-0.252729028463363650	-0.231504842638969420	0.015631878748536110	0.473846942186355590	
61124	-4.759695053100585900	0.959028840065002440	-8.403593063354492200	-0.068788342177867889	0.024173824116587639	-0.241714209318161010	-0.230329245328903200	0.013820684514939785	0.474272191524505620	
61125	-4.783806800842285200	1.005117654800415000	-8.395090103149414100	-0.057010807096958160	0.012225036509335041	-0.248439460992813110	-0.230499893426895140	0.016127597540616989	0.473503172397613530	
61126	-4.808812141418457000	1.044037222862243700	-8.339588165283203100	-0.056749269366264343	0.008842027746140957	-0.239765390753746030	-0.231226891279220580	0.014850519597530365	0.474242329597473140	
61127	-4.775966167449951200	1.069963335990905800	-8.356461524963378900	-0.047736216336488724	0.013490892946720123	-0.268209367990493770	-0.230372190475463870	0.014866777695715427	0.473499059677124020	
61128	-4.791036128997802700	0.999578893184661870	-8.387719154357910200	-0.057407107204198837	0.000329644506564364	-0.265922248363494870	-0.231843963265419010	0.009676819667220116	0.472359478473663330	
61129	-4.835587501525878900	0.982696175575256350	-8.399369239807128900	-0.043113369494676590	0.011231340467929840	-0.255091279745101930	-0.231851071119308470	0.009934995323419571	0.472231239080429080	
61130	-4.847301959991455100	0.932580173015594480	-8.443133354187011700	-0.064481899142265320	0.000156597219756804	-0.243985846638679500	-0.231212764978408810	0.018349213525652885	0.472191303968429570	
61131	-4.839164257049560500	0.910611271858215330	-8.411056518554687500	-0.067713111639022827	0.002317610895261169	-0.243935018777847290	-0.232758074998855590	0.017399622127413750	0.474327176809310910	
61132	-4.821064472198486300	0.895810604095458980	-8.435282707214355500	-0.065486088395118713	0.013242043554782867	-0.239541396498680110	-0.232166677713394170	0.018561072647571564	0.473451584577560420	
61133	-4.819176673889160200	0.918012499809265140	-8.427809715270996100	-0.050715271383523941	0.004666438326239586	-0.256077617406845090	-0.232070401310920720	0.012171678245067596	0.472888171672821040	
61134	-4.826499938964843700	0.932785868644714360	-8.420175552368164100	-0.050694640725851059	-0.010646449401974678	-0.257229447364807130	-0.233003810048103330	0.014115171507000923	0.472214311361312870	
61135	-4.821646690368652300	0.914154887199401860	-8.460374832153320300	-0.076742909848690033	0.008989779278635979	-0.256923645734786990	-0.231290891766548160	0.017299842089414597	0.473089218139648440	
61136	-4.835760593414306600	1.012232542037963900	-8.400795936584472700	-0.063434831798076630	0.004532393533736467	-0.246234416961669920	-0.232987776398658750	0.017371030524373055	0.472499161958694460	
61137	-4.805887699127197300	1.027227044105529800	-8.383331298828125000	-0.076647706329822540	0.004563785158097744	-0.255950123071670530	-0.233201190829277040	0.016834730282425880	0.473265409469604490	
61138	-4.796720027923584000	1.036493420600891100	-8.385277748107910200	-0.048574939370155334	0.015601373277604580	-0.257257193326950070	-0.231963396072387700	0.013068530708551407	0.472509801387786870	
61139	-4.795034885406494100	1.064191699028015100	-8.386779785156250000	-0.058899886906147003	0.013218815438449383	-0.237563610076904300	-0.232248350977897640	0.014359546825289726	0.471988081932067870	
61140	-4.832165718078613300	1.088019251823425300	-8.387252807617187500	-0.062797963619232178	0.051685564219951630	-0.259250611066818240	-0.231940418481826780	0.015688991174101830	0.472920030355453490	
61141	-4.780336856842041000	1.077176570892334000	-8.388832092285156200	-0.050999727100133896	0.002565737348049879	-0.269308894872665410	-0.232368394732475280	0.016493853181600571	0.472128927707672120	
61142	-4.795277595520019500	1.040099620819091800	-8.405184745788574200	-0.018042478710412979	0.003597025061026216	-0.248832866549491880	-0.231726765632629390	0.016728254035115242	0.472157597541809080	
61143	-4.841423988342285200	1.006632804870605500	-8.407951354980468700	-0.029900731518864632	0.024315766990184784	-0.244277045130729680	-0.233422920107841490	0.014041799120604992	0.473884493112564090	
61144	-4.833323955535888700	0.855248391628265380	-8.410118103027343700	-0.026880957186222076	0.015653394162654877	-0.254017382860183720	-0.233715295791625980	0.014962289482355118	0.473229795694351200	
61145	-4.858453273773193400	0.799412071704864500	-8.478925704956054700	-0.044413559138774872	0.028811855241656303	-0.259226620197296140	-0.232868269085884090	0.014105060137808323	0.472349792718887330	
61146	-4.910329818725585900	0.843518912792205810	-8.471487998962402300	-0.072180032730102539	0.015485419891774654	-0.245978668332099910	-0.232559919357299800	0.016314689069986343	0.473288387060165410	
61147	-4.896279811859130900	0.850799381732940670	-8.507989883422851600	-0.069999441504478455	0.020963856950402260	-0.243800997734069820	-0.232560515403747560	0.015057285316288471	0.473278909921646120	
61148	-4.892292976379394500	0.880465388298034670	-8.485997200012207000	-0.086780183017253876	0.039674248546361923	-0.264351129531860350	-0.232248708605766300	0.013605104759335518	0.471982389688491820	
61149	-4.864555358886718700	0.995209217071533200	-8.458143234252929700	-0.104669779539108280	0.052562069147825241	-0.243529826402664180	-0.233746603131294250	0.014351723715662956	0.470366805791854860	
61150	-4.870324611663818400	0.935972392559051510	-8.484086036682128900	-0.110581591725349430	0.051994111388921738	-0.175796225666999820	-0.233653038740158080	0.013133023865520954	0.472049862146377560	
61151	-4.893742084503173800	0.869024753570556640	-8.562088966369628900	-0.123917058110237120	0.056462939828634262	-0.254493832588195800	-0.233048498630523680	0.015709716826677322	0.470450580120086670	
61152	-4.937063694000244100	0.724885463714599610	-8.542820930480957000	-0.166998803615570070	0.055162958800792694	-0.246370419859886170	-0.233189776539802550	0.014603790827095509	0.472513765096664430	
61153	-4.938948154449462900	0.724868357181549070	-8.544578552246093700	-0.165162965655326840	0.084793701767921448	-0.256112545728683470	-0.234487950801849370	0.012639949098229408	0.472184956073760990	
61154	-4.993546485900878900	0.628255248069763180	-8.616710662841796900	-0.201986223459243770	0.078154914081096649	-0.255728155374526980	-0.233518794178962710	0.014426117762923241	0.471200287342071530	
61155	-5.068884372711181600	0.647917091846466060	-8.679533958435058600	-0.261589020490646360	0.095514252781867981	-0.255174130201339720	-0.235002890229225160	0.013022067956626415	0.469829171895980830	
61156	-5.060971736907959000	0.605558037757873540	-8.664004325866699200	-0.289623856544494630	0.112880766391754150	-0.249388709664344790	-0.236229896545410160	0.012742584571242332	0.468477308750152590	
61157	-5.098907947540283200	0.634734511375427250	-8.704212188720703100	-0.312723040580749510	0.121694840490818020	-0.262274920940399170	-0.235845789313316350	0.011223813518881798	0.468481987714767460	
61158	-5.099486351013183600	0.675263464450836180	-8.723588943481445300	-0.365674316883087160	0.123704276978969570	-0.258570760488510130	-0.236745983362197880	0.010736201889812946	0.466103553771972660	
61159	-5.319014549255371100	0.363367408514022830	-8.862688064575195300	-0.388164818286895750	0.133432701230049130	-0.242807924747467040	-0.236688271164894100	0.010305534116923809	0.467141449451446530	
61160	-5.493469715118408200	0.001929860096424818	-8.980140686035156200	-0.475251764059066770	0.149769648909568790	-0.256966054439544680	-0.238692343235015870	0.009676097892224789	0.465624541044235230	
61161	-5.715831756591796900	-0.548692405223846440	-9.229027748107910200	-0.565895140171051030	0.156036287546157840	-0.237137511372566220	-0.237411916255950930	0.009004729799926281	0.463336080312728880	
61162	-5.921005725860595700	-1.375442981719970700	-9.708215713500976600	-0.744060635566711430	0.160239145159721370	-0.249024227261543270	-0.239379927515983580	0.008090413175523281	0.462467730045318600	
61163	-6.738115310668945300	-1.148855686187744100	-10.182230949401855000	-0.962752521038055420	0.202396750450134280	-0.233017161488533020	-0.238386794924736020	0.003681323025375605	0.459619820117950440	
61164	-7.138370513916015600	-1.499837636947631800	-10.206381797790527000	-1.183543205261230500	0.272797226905822750	-0.222975090146064760	-0.239537805318832400	0.000051080409321003	0.457337111234664920	
61165	-7.223972797393798800	-3.665063858032226600	-11.149573326110840000	-1.477928757667541500	0.364365935325622560	-0.226939633488655090	-0.242356851696968080	-0.004540457855910063	0.454977303743362430	
61166	-7.413699150085449200	-4.804082870483398400	-11.296486854553223000	-1.916618943214416500	0.486736834049224850	-0.221790879964828490	-0.243432134389877320	-0.007884519174695015	0.449453979730606080	
61167	-7.495514869689941400	-2.427118062973022500	-11.100806236267090000	-2.387955427169799800	0.613406062126159670	-0.241190567612648010	-0.245121821761131290	-0.015386725775897503	0.444393038749694820	
61168	-5.243920326232910200	-3.101291656494140600	-9.861404418945312500	-2.814308881759643600	0.675864398479461670	-0.227991640567779540	-0.243708431720733640	-0.023894961923360825	0.435299783945083620	
61169	-5.276242256164550800	-4.482082366943359400	-10.533529281616211000	-3.238315343856811500	0.457175672054290770	-0.223754063248634340	-0.243247762322425840	-0.034319791942834854	0.429787665605545040	
61170	-6.376255989074707000	-9.309756278991699200	-11.600335121154785000	-3.823430061340332000	0.377199620008468630	-0.219141021370887760	-0.247478827834129330	-0.043432056903839111	0.420453369617462160	
61171	-8.470409393310546900	-15.304836273193359000	-16.477756500244141000	-4.227613449096679700	0.564489066600799560	-0.199793130159378050	-0.249390661716461180	-0.057153418660163879	0.409104257822036740	
61172	-13.528028488159180000	-16.699836730957031000	-18.288429260253906000	-4.636041164398193400	1.422035813331604000	-0.180553793907165530	-0.250239074230194090	-0.075485169887542725	0.393869966268539430	
61173	-12.509872436523437000	-17.897127151489258000	-13.183693885803223000	-5.933841705322265600	1.962465405464172400	-0.175784647464752200	-0.238508105278015140	-0.098330713808536530	0.374714344739913940	
61174	-7.681105613708496100	-7.553927421569824200	-5.618366241455078100	-6.059691905975341800	2.083950519561767600	-0.196673542261123660	-0.240880981087684630	-0.122567310929298400	0.355087220668792720	
61175	-7.392273426055908200	1.675385713577270500	-5.001163005828857400	-4.356540203094482400	1.949912786483764600	-0.216475531458854680	-0.223634555935859680	-0.139627233147621150	0.340750426054000850	
61176	-5.423151016235351600	2.251200199127197300	-3.889942646026611300	-2.288833141326904300	1.907424449920654300	-0.229531064629554750	-0.209875985980033870	-0.155545189976692200	0.330430865287780760	
61177	-3.948362827301025400	-3.528856515884399400	-3.910924911499023400	-0.801118671894073490	1.619639635086059600	-0.221908763051033020	-0.193466112017631530	-0.167062103748321530	0.326357752084732060	
61178	-4.222420692443847700	-8.750810623168945300	-5.226597309112548800	-0.408455699682235720	1.178458452224731400	-0.231916069984436040	-0.185019493103027340	-0.177833765745162960	0.326371103525161740	
61179	-5.488163471221923800	-10.340893745422363000	-6.765013217926025400	-0.741731703281402590	0.888213157653808590	-0.215405419468879700	-0.162945151329040530	-0.192286640405654910	0.322902798652648930	
61180	-6.880234718322753900	-8.893387794494628900	-7.759520530700683600	-1.220665335655212400	0.722254693508148190	-0.231537550687789920	-0.137783288955688480	-0.203308239579200740	0.319719433784484860	
61181	-7.804692745208740200	-6.471923351287841800	-8.253091812133789100	-1.430491209030151400	0.672594726085662840	-0.222131103277206420	-0.113706409931182860	-0.216134652495384220	0.315438389778137210	
61182	-7.872344493865966800	-4.775366783142089800	-8.260274887084960900	-1.373985886573791500	0.705151438713073730	-0.232348173856735230	-0.088896267116069794	-0.226359039545059200	0.315541207790374760	
61183	-7.701831817626953100	-4.373261451721191400	-8.522346496582031200	-1.251462697982788100	0.716461122035980220	-0.216229259967803960	-0.059434965252876282	-0.237163782119750980	0.315915465354919430	
61184	-7.632242202758789100	-4.644342422485351600	-8.909723281860351600	-1.211032390594482400	0.704906105995178220	-0.234886899590492250	-0.030385954305529594	-0.244662255048751830	0.315777808427810670	
61185	-7.700277328491210900	-4.870985507965087900	-9.133400917053222700	-1.319033384323120100	0.742835462093353270	-0.215080678462982180	-0.004778490867465735	-0.250202447175979610	0.315900236368179320	
61186	-7.801680088043212900	-4.668467521667480500	-9.158760070800781200	-1.487877607345581100	0.757653772830963130	-0.213750049471855160	0.025521146133542061	-0.254046499729156490	0.317530721426010130	
61187	-7.865411281585693400	-4.070442676544189500	-9.145698547363281200	-1.652588605880737300	0.838134109973907470	-0.214773923158645630	0.053783386945724487	-0.255837410688400270	0.319350957870483400	
61188	-7.771912574768066400	-3.345534086227417000	-9.008662223815918000	-1.743291020393371600	0.866188943386077880	-0.209074705839157100	0.086488373577594757	-0.256057769060134890	0.322797715663909910	
61189	-7.698889732360839800	-2.691000699996948200	-8.895492553710937500	-1.802527904510498000	0.951521813869476320	-0.236135452985763550	0.114731788635253910	-0.251793086528778080	0.324273020029067990	
61190	-7.606624126434326200	-2.221065282821655300	-8.790656089782714800	-1.772281646728515600	0.973470389842987060	-0.240007922053337100	0.142458781599998470	-0.247616469860076900	0.330271422863006590	
61191	-7.532999515533447300	-2.032247543334960900	-8.763126373291015600	-1.711075782775878900	1.025917172431945800	-0.211083441972732540	0.169094040989875790	-0.243729501962661740	0.335053086280822750	
61192	-7.463068008422851600	-2.096711874008178700	-8.798481941223144500	-1.684475064277648900	1.043649077415466300	-0.226468324661254880	0.193902239203453060	-0.232836872339248660	0.341499060392379760	
61193	-7.410012722015380900	-2.371613264083862300	-8.803482055664062500	-1.607055902481079100	1.086676239967346200	-0.240948647260665890	0.217584297060966490	-0.222694724798202510	0.348411709070205690	
61194	-7.420900821685791000	-2.637820720672607400	-8.859090805053710900	-1.609173059463501000	1.140229821205139200	-0.230716273188591000	0.237420246005058290	-0.210555329918861390	0.357515782117843630	
61195	-7.591131687164306600	-2.767069578170776400	-9.080490112304687500	-1.572350978851318400	1.185215115547180200	-0.217685312032699580	0.256306618452072140	-0.199979797005653380	0.365659236907958980	
61196	-7.793868064880371100	-2.896280050277710000	-9.261158943176269500	-1.524063110351562500	1.258790016174316400	-0.219943091273307800	0.273842573165893550	-0.187399744987487790	0.377137720584869380	
61197	-7.975133895874023400	-3.038505554199218700	-9.482417106628418000	-1.451807975769043000	1.342234253883361800	-0.213635116815567020	0.286503374576568600	-0.174061194062232970	0.388417601585388180	
61198	-7.983626842498779300	-3.253252267837524400	-9.591741561889648400	-1.351767897605896000	1.424750566482543900	-0.224962383508682250	0.298737734556198120	-0.160915061831474300	0.401236593723297120	
61199	-7.825633525848388700	-3.519947052001953100	-9.527142524719238300	-1.220744848251342800	1.528939127922058100	-0.211364388465881350	0.306498348712921140	-0.147025406360626220	0.416471064090728760	
61200	-7.565196037292480500	-3.785552501678466800	-9.333227157592773400	-1.066502571105957000	1.603839635848999000	-0.228607907891273500	0.313379764556884770	-0.134649455547332760	0.429709285497665410	
61201	-7.295277595520019500	-4.041370868682861300	-9.030834197998046900	-0.927897989749908450	1.647852420806884800	-0.228375807404518130	0.319865912199020390	-0.117966048419475560	0.445041179656982420	
61202	-6.979702472686767600	-4.235668182373046900	-8.649269104003906200	-0.758963346481323240	1.651476979255676300	-0.234041944146156310	0.322737038135528560	-0.102927275002002720	0.459819614887237550	
61203	-6.659355163574218800	-4.363134384155273400	-8.196379661560058600	-0.628576815128326420	1.654827594757080100	-0.225257977843284610	0.321919322013854980	-0.085921466350555420	0.477315336465835570	
61204	-6.290394306182861300	-4.414454460144043000	-7.698608875274658200	-0.485233962535858150	1.593719720840454100	-0.226668313145637510	0.320495218038558960	-0.066803112626075745	0.493113249540328980	
61205	-5.852874755859375000	-4.181178092956543000	-7.219006061553955100	-0.352781206369400020	1.472491502761840800	-0.238224044442176820	0.323239743709564210	-0.048240188509225845	0.507912814617156980	
61206	-5.556872844696044900	-3.782848119735717800	-6.838348865509033200	-0.168876484036445620	1.305341482162475600	-0.228689551353454590	0.320532202720642090	-0.029967857524752617	0.523650586605072020	
61207	-5.522881984710693400	-3.383656263351440400	-6.797969341278076200	0.045522890985012054	1.104798674583435100	-0.248958081007003780	0.315652638673782350	-0.007746194023638964	0.539456844329833980	
61208	-5.696627616882324200	-2.956429958343505900	-6.870933532714843700	0.253764122724533080	0.908170163631439210	-0.208100110292434690	0.306499928236007690	0.016993450000882149	0.549778401851654050	
61209	-6.046075820922851600	-2.605292081832885700	-7.242304325103759800	0.533994078636169430	0.717118918895721440	-0.265939950942993160	0.301283061504364010	0.041298791766166687	0.561819970607757570	
61210	-6.806995868682861300	-2.261736869812011700	-8.029558181762695300	0.748863220214843750	0.547282159328460690	-0.239133194088935850	0.297590255737304690	0.063313201069831848	0.573648512363433840	
61211	-8.067038536071777300	-1.851951718330383300	-9.155091285705566400	1.022541880607605000	0.494198977947235110	-0.260526508092880250	0.285065382719039920	0.087923660874366760	0.583178400993347170	
61212	-9.799793243408203100	-1.604472160339355500	-10.555540084838867000	1.314275383949279800	0.545577108860015870	-0.254697203636169430	0.274217098951339720	0.111262813210487370	0.591615974903106690	
61213	-11.409754753112793000	-1.823084712028503400	-11.849568367004395000	1.530341148376464800	0.762450873851776120	-0.248049557209014890	0.268119126558303830	0.136043176054954530	0.596999645233154300	
61214	-12.816391944885254000	-2.024667501449585000	-12.866629600524902000	1.668148636817932100	1.100457191467285200	-0.249107390642166140	0.252586960792541500	0.157385736703872680	0.605338096618652340	
61215	-13.033569335937500000	-0.993862867355346680	-12.550490379333496000	1.672175884246826200	1.491102337837219200	-0.269588828086853030	0.230274617671966550	0.176114886999130250	0.611425280570983890	
61216	-12.670797348022461000	0.184436216950416560	-11.683777809143066000	1.735649108886718800	1.878141403198242200	-0.266741722822189330	0.209839135408401490	0.197739660739898680	0.619041025638580320	
61217	-11.434659957885742000	0.353131920099258420	-10.028806686401367000	1.809918999671936000	2.160748004913330100	-0.254744201898574830	0.191933527588844300	0.213774323463439940	0.621527314186096190	
61218	-10.188194274902344000	0.165787488222122190	-8.313519477844238300	1.741443037986755400	2.252661705017089800	-0.261433780193328860	0.166530728340148930	0.227177873253822330	0.624978125095367430	
61219	-9.376171112060546900	0.290829837322235110	-6.879034996032714800	1.541403174400329600	2.192173480987548800	-0.258992224931716920	0.147468239068984990	0.238214835524559020	0.627378463745117190	
61220	-9.063017845153808600	0.855592429637908940	-5.676671028137207000	1.267800211906433100	2.045178174972534200	-0.258744239807128910	0.136387988924980160	0.249516174197196960	0.630634546279907230	
61221	-9.281890869140625000	1.885835647583007800	-4.692504882812500000	1.063482046127319300	1.823029875755310100	-0.259734928607940670	0.120842382311820980	0.255370318889617920	0.631844878196716310	
61222	-9.876585006713867200	2.917509317398071300	-3.813730955123901400	0.965483188629150390	1.500573277473449700	-0.257604330778121950	0.108995765447616580	0.262654036283493040	0.632831454277038570	
61223	-10.732053756713867000	3.720152616500854500	-3.080897808074951200	0.941733300685882570	1.277994871139526400	-0.255614966154098510	0.087160684168338776	0.264518350362777710	0.631411314010620120	
61224	-11.773134231567383000	4.044826984405517600	-2.497476816177368200	0.958785772323608400	1.032726764678955100	-0.263454824686050420	0.076374068856239319	0.270978391170501710	0.630748212337493900	
61225	-13.010637283325195000	3.845335006713867200	-2.060138940811157200	0.929714918136596680	0.800335228443145750	-0.247498512268066410	0.078693136572837830	0.276944339275360110	0.631020009517669680	
61226	-14.532426834106445000	3.166818857192993200	-1.898012876510620100	0.864576339721679690	0.627422034740448000	-0.273171156644821170	0.070606626570224762	0.281440287828445430	0.630585134029388430	
61227	-16.266456604003906000	2.390858173370361300	-1.827181100845336900	0.676176130771636960	0.532473087310791020	-0.238552764058113100	0.065989628434181213	0.283448874950408940	0.630406737327575680	
61228	-17.359851837158203000	1.836091041564941400	-1.300650715827941900	0.360901951789855960	0.503046870231628420	-0.265006512403488160	0.052833296358585358	0.283989787101745610	0.628561258316040040	
61229	-17.371429443359375000	1.761756062507629400	-0.211503297090530400	0.017961461097002029	0.479415386915206910	-0.247969925403594970	0.048706129193305969	0.282736301422119140	0.627989411354064940	
61230	-16.440881729125977000	2.116616487503051800	1.285993933677673300	-0.268427908420562740	0.318010419607162480	-0.250740796327590940	0.053696401417255402	0.282625198364257810	0.630275070667266850	
61231	-15.147136688232422000	2.509848117828369100	2.726821184158325200	-0.409189820289611820	0.040983047336339951	-0.242044091224670410	0.053921904414892197	0.278245270252227780	0.629732251167297360	
61232	-14.368343353271484000	2.600734949111938500	3.213213682174682600	-0.480679333209991460	-0.313893914222717290	-0.257866650819778440	0.053292892873287201	0.273849070072174070	0.629932582378387450	
61233	-14.337841987609863000	2.362246513366699200	2.727777242660522500	-0.435191333293914790	-0.676905810832977290	-0.241672605276107790	0.045359987765550613	0.270772218704223630	0.629966676235198970	
61234	-12.538060188293457000	-4.538652420043945300	-1.945456981658935500	-0.526617467403411870	-0.986483693122863770	-0.252850234508514400	0.053778119385242462	0.265172779560089110	0.627161204814910890	
61235	-17.610229492187500000	-28.330513000488281000	-2.734123229980468700	-5.471417903900146500	-1.560375452041626000	-0.191725358366966250	0.058421030640602112	0.237494453787803650	0.630134224891662600	
61236	-5.835087776184082000	-8.971466064453125000	7.584999561309814500	-9.288539886474609400	-1.543868541717529300	-0.165631398558616640	0.074589505791664124	0.188764601945877080	0.630965113639831540	
61237	-0.568524777889251710	19.396095275878906000	5.843694686889648400	-7.756514549255371100	-2.768168210983276400	-0.187860161066055300	0.086110420525074005	0.147081166505813600	0.626460731029510500	
61238	3.846788406372070300	16.782457351684570000	-7.793583393096923800	-5.299437999725341800	-3.221705436706543000	-0.219838917255401610	0.103379465639591220	0.115076281130313870	0.621750473976135250	
61239	-1.583321094512939500	27.945859909057617000	-6.780816555023193400	-3.830399751663208000	-3.725187778472900400	-0.248408064246177670	0.122534662485122680	0.098639771342277527	0.614120066165924070	
61240	-15.353221893310547000	40.707870483398438000	-3.805041551589965800	-2.396044492721557600	-3.953914880752563500	-0.273503720760345460	0.132943451404571530	0.093399040400981903	0.605687856674194340	
61241	-19.425132751464844000	35.300258636474609000	-9.000112533569335900	-1.214150667190551800	-4.053514003753662100	-0.290079295635223390	0.146644353866577150	0.088863946497440338	0.596619844436645510	
61242	-27.296346664428711000	22.043722152709961000	-23.647054672241211000	-0.631996750831604000	-3.242936372756958000	-0.278203755617141720	0.144696816802024840	0.082868427038192749	0.589222371578216550	
61243	-20.886583328247070000	-0.145558565855026250	-16.709413528442383000	-0.697181999683380130	-1.658396244049072300	-0.256285279989242550	0.186764195561409000	0.075948461890220642	0.586258709430694580	
61244	-6.723745346069335900	-12.994787216186523000	-7.597424983978271500	-0.663225591182708740	-1.414048075675964400	-0.251437842845916750	0.181700080633163450	0.072983726859092712	0.582648515701293950	
61245	-1.033755660057067900	-7.413026809692382800	-6.648528575897216800	-0.851418793201446530	-1.803591012954711900	-0.263166278600692750	0.184765964746475220	0.069874078035354614	0.577949643135070800	
61246	-13.398187637329102000	11.406064987182617000	-16.345815658569336000	-0.978207826614379880	-1.590690970420837400	-0.254377752542495730	0.182443037629127500	0.064267903566360474	0.573006272315979000	
61247	-12.361804962158203000	9.573885917663574200	-14.338038444519043000	-0.799670577049255370	-0.407312363386154170	-0.257392764091491700	0.184656754136085510	0.057639453560113907	0.573698461055755620	
61248	-5.828296184539794900	1.256349086761474600	-7.720147609710693400	-0.430344551801681520	-0.230329021811485290	-0.270641386508941650	0.191809371113777160	0.057843472808599472	0.571143209934234620	
61249	-7.776748657226562500	0.593373119831085210	-11.289588928222656000	-0.246561810374259950	-0.147002786397933960	-0.253733545541763310	0.196968406438827510	0.055794470012187958	0.571863353252410890	
61250	-5.229744434356689500	2.131805181503295900	-9.057911872863769500	-0.237557739019393920	-0.000537260144483298	-0.250373035669326780	0.192578122019767760	0.055937327444553375	0.571161091327667240	
61251	-5.906560897827148400	0.238788411021232600	-8.851574897766113300	-0.106501720845699310	0.008456317707896233	-0.243377581238746640	0.193690001964569090	0.053441207855939865	0.572746992111206050	
61252	-5.582258701324462900	-0.505976140499114990	-8.917206764221191400	-0.187225937843322750	0.074025869369506836	-0.259269624948501590	0.192797109484672550	0.053072612732648849	0.570499598979949950	
61253	-4.967590332031250000	0.606206238269805910	-8.619524955749511700	-0.181691199541091920	0.065187819302082062	-0.267922222614288330	0.190866529941558840	0.054764758795499802	0.570301592350006100	
61254	-5.164288043975830100	1.401914358139038100	-8.449980735778808600	-0.127477079629898070	0.077300824224948883	-0.267970114946365360	0.191136837005615230	0.053236018866300583	0.570561110973358150	
61255	-4.951616287231445300	1.024359345436096200	-8.455303192138671900	-0.029897620901465416	0.043639443814754486	-0.264219790697097780	0.191857486963272090	0.052516784518957138	0.572014093399047850	
61256	-5.031993389129638700	0.414171725511550900	-8.555027961730957000	-0.021840119734406471	0.030403139069676399	-0.241987973451614380	0.192299440503120420	0.055084258317947388	0.570753514766693120	
61257	-5.076649188995361300	0.257653176784515380	-8.418213844299316400	-0.030546076595783234	0.028160793706774712	-0.247255533933639530	0.192078948020935060	0.054806206375360489	0.571391403675079350	
61258	-5.151133060455322300	0.009468445554375649	-8.504408836364746100	-0.058030806481838226	0.012940510176122189	-0.263211280107498170	0.190473929047584530	0.053650300949811935	0.570146918296813960	
61259	-5.091378688812255900	0.037610806524753571	-8.469503402709960900	-0.073080763220787048	0.036900717765092850	-0.257576942443847660	0.189264252781867980	0.055126052349805832	0.571405708789825440	
61260	-5.086757659912109400	0.351681441068649290	-8.438450813293457000	-0.108583547174930570	0.034534696489572525	-0.251002728939056400	0.189911901950836180	0.053090918809175491	0.571547389030456540	
61261	-5.058591842651367200	0.427707970142364500	-8.398432731628418000	-0.102033324539661410	0.034524247050285339	-0.250035673379898070	0.190810546278953550	0.054575543850660324	0.571596205234527590	
61262	-4.995481967926025400	0.529729664325714110	-8.362672805786132800	-0.086768485605716705	0.023591406643390656	-0.248106569051742550	0.190210327506065370	0.054040953516960144	0.570008993148803710	
61263	-4.914722919464111300	0.629781246185302730	-8.370875358581543000	-0.055250395089387894	0.013807283714413643	-0.244126096367836000	0.190673291683197020	0.050940044224262238	0.571433305740356450	
61264	-4.877071380615234400	0.593140482902526860	-8.347048759460449200	-0.047336090356111526	-0.004873917903751135	-0.233312517404556270	0.190374180674552920	0.052746970206499100	0.570655286312103270	
61265	-4.881205081939697300	0.526465356349945070	-8.385804176330566400	-0.041691400110721588	-0.022052204236388206	-0.268260478973388670	0.190752133727073670	0.053497683256864548	0.570546925067901610	
61266	-4.910845756530761700	0.408002853393554690	-8.417273521423339800	-0.054851975291967392	-0.046074770390987396	-0.276844739913940430	0.192168697714805600	0.049933537840843201	0.570709347724914550	
61267	-4.943413257598877000	0.237949788570404050	-8.422169685363769500	-0.036944922059774399	-0.040755890309810638	-0.251750558614730830	0.192376807332038880	0.050359353423118591	0.572149515151977540	
61268	-4.965378761291503900	0.143621742725372310	-8.433630943298339800	-0.095318727195262909	0.003868238301947713	-0.243391841650009160	0.190652281045913700	0.056608427315950394	0.568748414516448970	
61269	-5.020575046539306600	0.113857813179492950	-8.425236701965332000	-0.132395908236503600	-0.037690535187721252	-0.259539812803268430	0.190625771880149840	0.057523839175701141	0.570571899414062500	
61270	-5.027616500854492200	0.235922381281852720	-8.376409530639648400	-0.132318973541259770	-0.013680025003850460	-0.255212515592575070	0.190904974937438960	0.048556115478277206	0.568698525428771970	
61271	-5.099568367004394500	0.337309509515762330	-8.340524673461914100	-0.160685911774635310	0.010351596400141716	-0.262623041868209840	0.191453412175178530	0.046749051660299301	0.569357156753540040	
61272	-5.078367710113525400	0.396769881248474120	-8.282423019409179700	-0.180857583880424500	0.013423168100416660	-0.248313158750534060	0.191445812582969670	0.046001479029655457	0.569221377372741700	
61273	-5.067474842071533200	0.463322788476943970	-8.276441574096679700	-0.216638848185539250	0.014431988820433617	-0.251329571008682250	0.190572366118431090	0.051787994801998138	0.569617748260498050	
61274	-5.023650169372558600	0.578000247478485110	-8.278044700622558600	-0.193255826830863950	0.025945004075765610	-0.243605852127075200	0.189438581466674800	0.051090680062770844	0.569284319877624510	
61275	-4.992456912994384800	0.668668985366821290	-8.268696784973144500	-0.185657232999801640	0.011748186312615871	-0.244882583618164060	0.190498545765876770	0.045497301965951920	0.569936037063598630	
61276	-4.976704597473144500	0.699954569339752200	-8.306749343872070300	-0.165295198559761050	0.034844379872083664	-0.249373316764831540	0.187932908535003660	0.046445805579423904	0.569835662841796880	
61277	-4.948648929595947300	0.692764520645141600	-8.293139457702636700	-0.172185257077217100	0.026207394897937775	-0.266787081956863400	0.190888881683349610	0.045974675565958023	0.567748248577117920	
61278	-4.917488098144531300	0.629986345767974850	-8.323775291442871100	-0.161008313298225400	0.017385315150022507	-0.252671837806701660	0.189029857516288760	0.046720102429389954	0.568844735622406010	
61279	-4.919578552246093700	0.559669733047485350	-8.353582382202148400	-0.172693148255348210	-0.000205264164833352	-0.244926288723945620	0.188629627227783200	0.044983375817537308	0.568555176258087160	
61280	-4.980400085449218700	0.546499490737915040	-8.344820022583007800	-0.188127085566520690	0.005305841099470854	-0.255677163600921630	0.187944859266281130	0.041151318699121475	0.570056140422821040	
61281	-4.942420482635498000	0.470673143863677980	-8.408396720886230500	-0.208573624491691590	-0.010079052299261093	-0.251111239194870000	0.186816990375518800	0.041020896285772324	0.568189740180969240	
61282	-4.989314556121826200	0.644073426723480220	-8.397628784179687500	-0.251977175474166870	-0.020008329302072525	-0.257462859153747560	0.187128067016601560	0.038059830665588379	0.566881895065307620	
61283	-5.185065269470214800	0.664537906646728520	-8.562090873718261700	-0.230753049254417420	-0.041616074740886688	-0.271907180547714230	0.188204556703567500	0.036728233098983765	0.567826032638549800	
61284	-4.861296176910400400	0.522748947143554690	-8.409984588623046900	-0.268003463745117190	-0.073686897754669189	-0.255195409059524540	0.188487946987152100	0.036434497684240341	0.566017568111419680	
61285	-4.903077125549316400	0.599494159221649170	-8.539988517761230500	-0.271246731281280520	-0.085680104792118073	-0.253078222274780270	0.188694477081298830	0.033465407788753510	0.567432463169097900	
61286	-4.843348503112793000	0.747793257236480710	-8.476387023925781200	-0.292799234390258790	-0.039880085736513138	-0.246334984898567200	0.189006879925727840	0.033270630985498428	0.566145420074462890	
61287	-4.857766628265380900	0.728886961936950680	-8.555880546569824200	-0.292576074600219730	-0.167826548218727110	-0.249980151653289790	0.190031737089157100	0.029974052682518959	0.566163599491119380	
61288	-4.697389602661132800	1.036377549171447800	-8.509327888488769500	-0.318533420562744140	-0.199617773294448850	-0.255565017461776730	0.189504593610763550	0.031132770702242851	0.565890491008758540	
61289	-4.094871997833252000	1.579752922058105500	-8.218603134155273400	-0.176828250288963320	-0.326417088508605960	-0.240184471011161800	0.190670415759086610	0.028313703835010529	0.563840329647064210	
61290	-3.508131504058837900	1.222595095634460400	-8.579821586608886700	0.033135339617729187	-0.477632373571395870	-0.248638853430747990	0.192323803901672360	0.028156945481896400	0.563648700714111330	
61291	-4.026128768920898400	0.474718421697616580	-8.857416152954101600	0.002865449758246541	-0.732364416122436520	-0.265979260206222530	0.195708528161048890	0.028515579178929329	0.562364637851715090	
61292	-4.463358402252197300	1.376074075698852500	-8.755863189697265600	-0.176036700606346130	-0.874178349971771240	-0.255853950977325440	0.199419721961021420	0.027785863727331161	0.560047209262847900	
61293	-4.107428073883056600	1.567365169525146500	-8.484521865844726600	-0.090861462056636810	-1.048067808151245100	-0.254021793603897090	0.203908070921897890	0.027280436828732491	0.557893872261047360	
61294	-4.152168273925781200	1.361872911453247100	-8.552893638610839800	-0.079811349511146545	-1.198946833610534700	-0.259856432676315310	0.209722876548767090	0.026700681075453758	0.556574761867523190	
61295	-3.905556917190551800	1.853056430816650400	-8.403197288513183600	-0.016125353053212166	-1.395864486694335900	-0.251615017652511600	0.215058982372283940	0.026846909895539284	0.553552806377410890	
61296	-3.861283540725708000	1.501987457275390600	-8.497632980346679700	0.029459754005074501	-1.607818484306335400	-0.267621934413909910	0.221741691231727600	0.027896000072360039	0.549425184726715090	
61297	-3.815204620361328100	1.464227676391601600	-8.327422142028808600	0.098504692316055298	-1.824397444725036600	-0.262321949005126950	0.232066035270690920	0.029925595968961716	0.544029057025909420	
61298	-3.851729154586792000	1.552833437919616700	-7.903479099273681600	0.194826513528823850	-2.093517065048217800	-0.260828763246536250	0.240587428212165830	0.033141374588012695	0.538436353206634520	
61299	-3.806972026824951200	0.960815548896789550	-8.976752281188964800	0.212706044316291810	-2.330175399780273400	-0.279646426439285280	0.253343105316162110	0.036873124539852142	0.533024966716766360	
61300	-3.953830480575561500	1.360898375511169400	-7.780004501342773400	0.088682293891906738	-2.581748008728027300	-0.279809683561325070	0.264821618795394900	0.037740312516689301	0.527668476104736330	
61301	-4.033571720123291000	1.290303707122802700	-8.184192657470703100	0.107988491654396060	-2.889041185379028300	-0.267738282680511470	0.276648133993148800	0.041388373821973801	0.519360423088073730	
61302	-3.761548280715942400	0.835861861705780030	-8.107068061828613300	0.064717315137386322	-3.190182685852050800	-0.260257720947265630	0.289613574743270870	0.042252790182828903	0.510819494724273680	
61303	-3.552672386169433600	0.472610712051391600	-8.208045959472656300	0.037257719784975052	-3.597112178802490200	-0.277302473783493040	0.306376844644546510	0.046196456998586655	0.499214142560958860	
61304	-3.119843959808349600	0.125228852033615110	-8.300517082214355500	0.020618453621864319	-3.950082302093505900	-0.269537180662155150	0.322470813989639280	0.047722388058900833	0.488252043724060060	
61305	-2.777546644210815400	-0.238305255770683290	-8.202457427978515600	-0.034790936857461929	-4.574023246765136700	-0.266292482614517210	0.339704811573028560	0.050041969865560532	0.473670691251754760	
61306	-2.316757202148437500	-0.586473703384399410	-8.096632003784179700	-0.184329345822334290	-5.250724792480468700	-0.268947243690490720	0.358330905437469480	0.051440060138702393	0.454206913709640500	
61307	-2.259985685348510700	-0.489919483661651610	-7.253388881683349600	-0.527516663074493410	-6.099143028259277300	-0.264381855726242070	0.381656110286712650	0.049349114298820496	0.431797742843627930	
61308	-3.045207977294921900	-0.895021915435791020	-7.014095783233642600	-0.928862273693084720	-7.216565608978271500	-0.259704232215881350	0.402567207813262940	0.047773100435733795	0.402799397706985470	
61309	-4.736973762512207000	-2.571817636489868200	-8.503766059875488300	-1.591892123222351100	-8.167442321777343700	-0.263052672147750850	0.427554368972778320	0.039805032312870026	0.368860214948654170	
61310	-10.156905174255371000	-4.411386013031005900	-11.823451042175293000	-2.196130752563476600	-9.029538154602050800	-0.267633169889450070	0.447027951478958130	0.029948377981781960	0.330131530761718750	
61311	-15.784626007080078000	-2.902295351028442400	-11.977141380310059000	-2.634163141250610400	-9.269187927246093700	-0.265089482069015500	0.464751571416854860	0.018566815182566643	0.287552803754806520	
61312	-22.215223312377930000	1.511204004287719700	-12.531076431274414000	-1.971959233283996600	-9.150715827941894500	-0.272365033626556400	0.481279850006103520	0.008396198973059654	0.246491149067878720	
61313	-21.637359619140625000	3.282198190689086900	-11.492576599121094000	-0.879822611808776860	-8.571362495422363300	-0.273976385593414310	0.502212166786193850	0.000700593809597194	0.204074531793594360	
61314	-21.867815017700195000	-1.985959887504577600	-12.860740661621094000	-0.185258060693740840	-8.215088844299316400	-0.278642803430557250	0.513318121433258060	-0.003854898037388921	0.169060036540031430	
61315	-18.830139160156250000	-4.353121280670166000	-11.963593482971191000	-0.421231657266616820	-7.953734397888183600	-0.279137462377548220	0.515039622783660890	-0.005375425331294537	0.133285641670227050	
61316	-16.764925003051758000	-1.282819509506225600	-9.009169578552246100	-0.549265325069427490	-7.824409008026123000	-0.282592415809631350	0.522514760494232180	-0.011821892112493515	0.095118574798107147	
61317	-13.273598670959473000	-1.429747223854064900	-10.369850158691406000	-0.251524358987808230	-8.075635910034179700	-0.282212942838668820	0.525060713291168210	-0.019827682524919510	0.060368739068508148	
61318	-16.033407211303711000	2.347845554351806600	-12.784497261047363000	0.269781589508056640	-8.165711402893066400	-0.284706026315689090	0.523519396781921390	-0.028138762339949608	0.021160738542675972	
61319	-18.029499053955078000	2.846679449081420900	-13.870325088500977000	1.290692687034606900	-7.634477615356445300	-0.303256541490554810	0.522014200687408450	-0.038201872259378433	-0.008191262371838093	
61320	-18.577749252319336000	1.010236978530883800	-15.113236427307129000	2.412993669509887700	-6.916985034942627000	-0.309110701084136960	0.513330280780792240	-0.042659550905227661	-0.035464871674776077	
61321	-18.841791152954102000	0.307810634374618530	-18.939992904663086000	3.491928815841674800	-5.640536308288574200	-0.276489943265914920	0.506171345710754390	-0.048360548913478851	-0.053725149482488632	
61322	-11.717396736145020000	-2.404635190963745100	-24.094911575317383000	4.116132736206054700	-3.806372404098510700	-0.304668694734573360	0.497696608304977420	-0.057706546038389206	-0.058824513107538223	
61323	-12.225962638854980000	-20.527797698974609000	-20.024671554565430000	2.947611808776855500	-1.933584809303283700	-0.270462989807128910	0.510668039321899410	-0.063955843448638916	-0.053394157439470291	
61324	-25.171615600585937000	-20.612764358520508000	-29.079305648803711000	2.032047271728515600	-0.126971602439880370	-0.258990198373794560	0.521868169307708740	-0.057582318782806396	-0.043009433895349503	
61325	-18.585815429687500000	-20.653879165649414000	-27.916049957275391000	0.697189688682556150	2.107618570327758800	-0.205347061157226560	0.501943409442901610	-0.056091584265232086	-0.035393584519624710	
61326	-9.048779487609863300	-20.478599548339844000	-22.165191650390625000	-0.963446438312530520	3.568810462951660200	-0.199705123901367190	0.511185288429260250	-0.051217578351497650	-0.014195825904607773	
61327	-5.357032775878906200	-15.521619796752930000	-17.787191390991211000	-2.507941961288452100	4.460111618041992200	-0.201114371418952940	0.516365587711334230	-0.042511813342571259	0.005302484612911940	
61328	-3.921112775802612300	-8.975748062133789100	-13.315254211425781000	-3.454523801803588900	5.006121158599853500	-0.175351053476333620	0.512514472007751460	-0.034116044640541077	0.030392607674002647	
61329	-3.792861461639404300	-4.271867752075195300	-10.506895065307617000	-3.576063632965087900	5.255048274993896500	-0.201804548501968380	0.509871244430541990	-0.026827568188309669	0.051889576017856598	
61330	-4.403725147247314500	-0.744763314723968510	-9.829194068908691400	-3.286292552947998000	5.490878582000732400	-0.208879455924034120	0.520983695983886720	-0.023852264508605003	0.069905512034893036	
61331	-4.868171691894531300	2.438351869583129900	-9.413412094116210900	-2.728352069854736300	5.876324176788330100	-0.200035125017166140	0.516103744506835940	-0.020960448309779167	0.094911217689514160	
61332	-5.426203250885009800	4.859048843383789100	-8.865414619445800800	-1.835549950599670400	6.260733127593994100	-0.217457741498947140	0.512279987335205080	-0.015985634177923203	0.120496153831481930	
61333	-5.877746582031250000	5.593555927276611300	-8.497684478759765600	-0.819424271583557130	6.571217060089111300	-0.236894190311431880	0.490251511335372920	-0.012526693753898144	0.150110989809036250	
61334	-4.760528087615966800	5.257330894470214800	-6.900191307067871100	0.057362772524356842	6.789704799652099600	-0.247973129153251650	0.480252563953399660	-0.007979122921824455	0.179718628525733950	
61335	-4.030561923980712900	4.238102912902832000	-6.444780349731445300	0.711524963378906250	6.832866191864013700	-0.234088748693466190	0.484140872955322270	-0.005099547561258078	0.208207696676254270	
61336	-4.269413471221923800	3.185938596725463900	-6.527665615081787100	1.078995943069458000	6.796958923339843700	-0.251759380102157590	0.472019821405410770	0.000835351063869894	0.238775536417961120	
61337	-5.135451316833496100	2.582421541213989300	-6.779252529144287100	1.277197122573852500	6.775698184967041000	-0.236689358949661250	0.458390921354293820	0.005377603229135275	0.265244811773300170	
61338	-6.407553195953369100	2.191747188568115200	-7.304655075073242200	1.296797871589660600	6.756551742553710900	-0.258425533771514890	0.435230046510696410	0.009727173484861851	0.295208394527435300	
61339	-7.625706195831298800	1.823580741882324200	-7.809545040130615200	1.225255250930786100	6.837414264678955100	-0.235449969768524170	0.419664949178695680	0.015096959657967091	0.323680162429809570	
61340	-8.240577697753906200	1.687439918518066400	-7.873851776123046900	1.144482374191284200	6.947825431823730500	-0.246323868632316590	0.407410115003585820	0.018000874668359756	0.349545508623123170	
61341	-8.466206550598144500	1.623547315597534200	-7.884692192077636700	1.049901962280273400	7.011089801788330100	-0.255085647106170650	0.385802894830703740	0.026184447109699249	0.377525568008422850	
61342	-8.445933341979980500	1.797841429710388200	-7.750871181488037100	1.027647972106933600	6.994429111480712900	-0.242014542222023010	0.364023178815841670	0.032777346670627594	0.404707431793212890	
61343	-8.062219619750976600	2.252667427062988300	-7.223486423492431600	1.037167668342590300	6.932798385620117200	-0.230703040957450870	0.331352621316909790	0.039764128625392914	0.429358601570129390	
61344	-7.448118686676025400	2.946323871612548800	-6.398938655853271500	1.200455546379089400	6.749077320098877000	-0.238769799470901490	0.301947951316833500	0.049000516533851624	0.455202162265777590	
61345	-6.316567420959472700	3.510497093200683600	-5.355100154876709000	1.497218728065490700	6.460621833801269500	-0.251466602087020870	0.277338206768035890	0.058306474238634109	0.479818940162658690	
61346	-5.553771495819091800	3.802598953247070300	-5.256699562072753900	1.858926653861999500	5.927783012390136700	-0.265177309513092040	0.243151649832725520	0.066161423921585083	0.497921228408813480	
61347	-6.647444725036621100	3.498289346694946300	-7.228734016418457000	2.153375864028930700	5.404533386230468700	-0.265680938959121700	0.212387293577194210	0.071803219616413116	0.510826945304870610	
61348	-7.614873886108398400	2.295194864273071300	-8.837458610534668000	2.252758979797363300	4.992160797119140600	-0.272141426801681520	0.182084694504737850	0.073548473417758942	0.515932500362396240	
61349	-8.301250457763671900	1.372673511505127000	-11.140108108520508000	2.229082107543945300	4.533629894256591800	-0.254928946495056150	0.159970358014106750	0.075849540531635284	0.520995795726776120	
61350	-10.932310104370117000	1.627663612365722700	-14.756645202636719000	2.138314008712768600	4.202487945556640600	-0.227921038866043090	0.128874957561492920	0.074618294835090637	0.525656282901763920	
61351	-14.285202026367188000	2.575477600097656200	-17.174802780151367000	2.052908897399902300	4.074697971343994100	-0.253440320491790770	0.111438639461994170	0.074707500636577606	0.527393341064453130	
61352	-17.550615310668945000	4.278157234191894500	-17.397102355957031000	2.130002021789550800	4.067638397216796900	-0.274296194314956670	0.097821749746799469	0.074972465634346008	0.528772413730621340	
61353	-20.785072326660156000	5.971030235290527300	-16.986797332763672000	2.443773746490478500	4.130794048309326200	-0.273035764694213870	0.104938827455043790	0.072327278554439545	0.527882218360900880	
61354	-23.916664123535156000	6.755999565124511700	-16.558408737182617000	2.863234281539917000	4.263231277465820300	-0.277151882648468020	0.094734035432338715	0.077850773930549622	0.533079147338867190	
61355	-26.998834609985352000	7.044007778167724600	-15.055229187011719000	3.157648086547851600	4.513937473297119100	-0.275132715702056880	0.073687881231307983	0.088019505143165588	0.541232526302337650	
61356	-28.906629562377930000	5.963573932647705100	-12.411087036132813000	3.251053810119628900	4.750452995300293000	-0.294286638498306270	0.068690590560436249	0.102013543248176570	0.548009574413299560	
61357	-29.605745315551758000	3.730133295059204100	-9.181734085083007800	2.984552621841430700	4.950194358825683600	-0.272350698709487920	0.061879668384790421	0.115841373801231380	0.558994054794311520	
61358	-29.587566375732422000	2.324651956558227500	-4.549695491790771500	2.479400157928466800	4.938387393951416000	-0.251978725194931030	0.043166872113943100	0.131585538387298580	0.567676544189453130	
61359	-30.900588989257813000	3.475745916366577100	1.241909265518188500	1.892392039299011200	4.813290596008300800	-0.260886818170547490	0.025440301746129990	0.146102786064147950	0.580286264419555660	
61360	-32.010608673095703000	5.751877784729003900	8.514042854309082000	1.470602393150329600	4.530230045318603500	-0.257527410984039310	0.039759442210197449	0.157020866870880130	0.593822002410888670	
61361	-33.773727416992188000	7.734630584716796900	16.092020034790039000	1.356507062911987300	4.066404819488525400	-0.265930414199829100	0.033574637025594711	0.169210776686668400	0.604560732841491700	
61362	-32.834815979003906000	7.992384910583496100	24.028959274291992000	1.318451762199401900	3.320187091827392600	-0.266628324985504150	0.028015021234750748	0.182016879320144650	0.612733542919158940	
61363	-28.239389419555664000	6.448896884918212900	28.897674560546875000	1.123078227043151900	2.059713363647460900	-0.270960837602615360	-0.043536167591810226	0.195877268910408020	0.617110788822174070	
61364	-25.386520385742188000	3.940117835998535200	26.563201904296875000	0.700333714485168460	0.364662230014801030	-0.263442903757095340	-0.039836525917053223	0.205376356840133670	0.621491849422454830	
61365	-20.227910995483398000	-1.047651648521423300	17.778821945190430000	0.017896873876452446	-0.981945633888244630	-0.265018433332443240	0.006926001980900765	0.210996031761169430	0.626998841762542720	
61366	-24.239126205444336000	-30.209932327270508000	16.536983489990234000	-6.196265697479248000	-2.837474822998046900	-0.198704510927200320	0.023447480052709579	0.182292744517326350	0.629552960395812990	
61367	5.285803318023681600	-10.673915863037109000	5.889118671417236300	-7.851033687591552700	-3.357376575469970700	-0.177028372883796690	0.032024659216403961	0.150250524282455440	0.627334654331207280	
61368	5.936873912811279300	11.138942718505859000	-6.879528522491455100	-7.371382236480712900	-4.297516345977783200	-0.213450819253921510	0.074551142752170563	0.121231980621814730	0.623445332050323490	
61369	-0.630843639373779300	14.342576026916504000	-9.349565505981445300	-5.601267814636230500	-4.717267513275146500	-0.239492803812026980	0.102814465761184690	0.105810157954692840	0.616204082965850830	
61370	-23.540668487548828000	34.208457946777344000	0.506410479545593260	-3.930109024047851600	-5.074448108673095700	-0.278641790151596070	0.106565386056900020	0.096459433436393738	0.607721805572509770	
61371	-24.430089950561523000	36.178165435791016000	-5.388514518737793000	-2.080367565155029300	-5.351350307464599600	-0.277046799659729000	0.128977403044700620	0.097739651799201965	0.598802745342254640	
61372	-31.789915084838867000	30.510648727416992000	-22.913940429687500000	-1.175421714782714800	-5.201292037963867200	-0.273992806673049930	0.138362646102905270	0.098057501018047333	0.590369403362274170	
61373	-31.019117355346680000	14.433219909667969000	-22.911638259887695000	-1.209419131278991700	-3.347974777221679700	-0.259682148694992070	0.205464750528335570	0.097599819302558899	0.584218502044677730	
61374	-16.040779113769531000	-2.043852329254150400	-12.936554908752441000	-0.519746661186218260	-2.587838888168335000	-0.259133130311965940	0.207076862454414370	0.095950692892074585	0.578690648078918460	
61375	-4.041913509368896500	-7.332243919372558600	-9.630466461181640600	-0.695827007293701170	-2.252495050430297900	-0.236404389142990110	0.199766695499420170	0.092601381242275238	0.573814928531646730	
61376	-13.308035850524902000	9.990075111389160200	-15.593498229980469000	-0.685415208339691160	-2.085834264755249000	-0.260564446449279790	0.203318491578102110	0.093150451779365540	0.568644523620605470	
61377	-14.581937789916992000	7.386043548583984400	-16.386188507080078000	-0.462020218372344970	-0.914026439189910890	-0.249034166336059570	0.204741537570953370	0.092210866510868073	0.566619694232940670	
61378	-7.211717128753662100	-0.361323922872543330	-9.510893821716308600	-0.329225391149520870	-0.424972474575042720	-0.261919438838958740	0.218068033456802370	0.092623412609100342	0.566921412944793700	
61379	-7.222944259643554700	0.299964785575866700	-11.804757118225098000	-0.339530140161514280	-0.281610965728759770	-0.253011614084243770	0.220559552311897280	0.089227855205535889	0.565701961517333980	
61380	-5.609544277191162100	1.926100492477417000	-9.229208946228027300	-0.335969984531402590	-0.110119730234146120	-0.254052013158798220	0.217670887708663940	0.086220435798168182	0.564389824867248540	
61381	-6.364463806152343700	-0.081107504665851593	-8.882775306701660200	-0.275388926267623900	-0.048868484795093536	-0.249478533864021300	0.217606186866760250	0.087160639464855194	0.563225626945495610	
61382	-5.456182003021240200	0.822977364063262940	-8.760657310485839800	-0.265582412481307980	-0.013896718621253967	-0.251277089118957520	0.219238698482513430	0.085272721946239471	0.564967751502990720	
61383	-5.209954261779785200	0.822767078876495360	-8.658888816833496100	-0.214817970991134640	-0.009370104409754276	-0.258242607116699220	0.217663645744323730	0.086227126419544220	0.564259707927703860	
61384	-5.084776878356933600	1.510903954505920400	-8.519583702087402300	-0.166731804609298710	-0.009413154795765877	-0.245071485638618470	0.215454578399658200	0.087443336844444275	0.563656985759735110	
61385	-5.387993335723877000	1.762722492218017600	-8.068032264709472700	-0.079727090895175934	-0.022552978247404099	-0.240686044096946720	0.218916982412338260	0.085214063525199890	0.563785254955291750	
61386	-5.007570743560791000	1.385364532470703100	-8.199301719665527300	0.031286280602216721	0.029343355447053909	-0.249857246875762940	0.218091517686843870	0.085422471165657043	0.565050661563873290	
61387	-5.225995063781738300	-0.064073823392391205	-8.754898071289062500	0.036356143653392792	-0.033784713596105576	-0.252090752124786380	0.217820867896080020	0.086196944117546082	0.564785420894622800	
61388	-5.167517662048339800	-0.158255264163017270	-8.815659523010253900	-0.067268304526805878	-0.037445303052663803	-0.240207284688949580	0.217969670891761780	0.087924733757972717	0.562857091426849370	
61389	-5.169358253479003900	0.167546048760414120	-8.639454841613769500	-0.126095771789550780	0.006185862701386213	-0.256221175193786620	0.218148291110992430	0.087245918810367584	0.563768327236175540	
61390	-5.007698059082031200	0.618140399456024170	-8.397404670715332000	-0.123293712735176090	0.000448810140369460	-0.239207878708839420	0.219346120953559880	0.087049327790737152	0.564596056938171390	
61391	-4.913310050964355500	0.960592746734619140	-8.310554504394531300	-0.101856388151645660	-0.015834946185350418	-0.252828508615493770	0.219744622707366940	0.085391461849212646	0.564859986305236820	
61392	-4.989076137542724600	1.002777576446533200	-8.295235633850097700	-0.047577455639839172	-0.059459298849105835	-0.251292735338211060	0.219872668385505680	0.084885209798812866	0.564861536026000980	
61393	-4.988485813140869100	1.036197781562805200	-8.256808280944824200	-0.034885346889495850	-0.100873388350009920	-0.269015371799468990	0.218661323189735410	0.087106555700302124	0.563788771629333500	
61394	-5.018159389495849600	0.993522286415100100	-8.271012306213378900	-0.008515690453350544	-0.114041760563850400	-0.253976464271545410	0.219716534018516540	0.087178178131580353	0.564352869987487790	
61395	-5.054368972778320300	0.858146607875823970	-8.358634948730468700	0.014362904243171215	-0.116186171770095830	-0.245332732796669010	0.222125351428985600	0.088271468877792358	0.563942670822143550	
61396	-5.186548233032226600	0.162233948707580570	-8.573876380920410200	-0.002318394603207707	-0.124777875840663910	-0.256607234477996830	0.222053885459899900	0.085958555340766907	0.564961016178131100	
61397	-5.263210773468017600	-0.152591481804847720	-8.693449974060058600	-0.067317329347133636	-0.110707864165306090	-0.253544121980667110	0.222859010100364690	0.088661573827266693	0.563327133655548100	
61398	-5.295260429382324200	-0.144602924585342410	-8.533153533935546900	-0.134564831852912900	-0.102163240313529970	-0.262777030467987060	0.223093256354331970	0.087417714297771454	0.562938094139099120	
61399	-5.161715984344482400	0.211490631103515630	-8.333168983459472700	-0.158293962478637700	-0.092477373778820038	-0.265038549900054930	0.222615540027618410	0.085763677954673767	0.563554823398590090	
61400	-5.167147159576416000	0.544695973396301270	-8.149529457092285200	-0.159922823309898380	-0.081781305372714996	-0.247840374708175660	0.224697783589363100	0.087567932903766632	0.564175009727478030	
61401	-5.079324722290039100	0.548569500446319580	-8.198987007141113300	-0.140410840511322020	-0.103580556809902190	-0.248069822788238530	0.224224701523780820	0.084641426801681519	0.562575161457061770	
61402	-5.147819042205810500	0.526054561138153080	-8.206423759460449200	-0.114347815513610840	-0.093693234026432037	-0.242794945836067200	0.224822729825973510	0.084790214896202087	0.561822295188903810	
61403	-5.088649272918701200	0.672368109226226810	-8.171796798706054700	-0.129548773169517520	-0.101381391286849980	-0.247175052762031560	0.224295273423194890	0.085068680346012115	0.561542630195617680	
61404	-4.935532569885253900	0.926690459251403810	-8.037021636962890600	-0.072304666042327881	-0.055297553539276123	-0.251022189855575560	0.224624291062355040	0.085246354341506958	0.562856078147888180	
61405	-4.972750663757324200	0.900582790374755860	-8.054424285888671900	0.007693893741816282	-0.153407990932464600	-0.265084654092788700	0.224096909165382390	0.085650525987148285	0.562577366828918460	
61406	-5.184342384338378900	0.640614986419677730	-8.153251647949218700	0.053319219499826431	-0.135814815759658810	-0.252116501331329350	0.224844008684158330	0.083890169858932495	0.562205910682678220	
61407	-5.087461948394775400	0.729966998100280760	-8.096870422363281200	0.068497605621814728	-0.148911774158477780	-0.254545778036117550	0.225299343466758730	0.084181465208530426	0.561188519001007080	
61408	-4.856380462646484400	0.409340888261795040	-8.187056541442871100	0.056588523089885712	-0.164226412773132320	-0.254194170236587520	0.223425388336181640	0.083180151879787445	0.562011361122131350	
61409	-5.116852283477783200	0.626354932785034180	-8.111864089965820300	0.041409019380807877	-0.159910261631011960	-0.256438702344894410	0.226482287049293520	0.083118282258510590	0.561749458312988280	
61410	-5.153120040893554700	0.441495180130004880	-8.120468139648437500	0.053692631423473358	-0.166560664772987370	-0.241137310862541200	0.227259218692779540	0.083216816186904907	0.561912536621093750	
61411	-5.159447193145752000	0.326662272214889530	-8.188744544982910200	0.040227722376585007	-0.205774337053298950	-0.262853890657424930	0.227593526244163510	0.083504840731620789	0.561019837856292720	
61412	-5.013909816741943400	0.391899138689041140	-8.204625129699707000	0.013345905579626560	-0.186229094862937930	-0.253880143165588380	0.229631692171096800	0.083966434001922607	0.560849070549011230	
61413	-4.740313053131103500	0.258178174495697020	-8.250149726867675800	-0.036336254328489304	-0.221377819776535030	-0.253423899412155150	0.230201199650764470	0.085021965205669403	0.559582471847534180	
61414	-4.846991539001464800	0.821668922901153560	-8.077034950256347700	-0.051148381084203720	-0.277329087257385250	-0.251789689064025880	0.231341317296028140	0.085256040096282959	0.559372305870056150	
61415	-4.926615715026855500	0.822683572769165040	-8.174372673034668000	-0.026214076206088066	-0.329709708690643310	-0.253253787755966190	0.232744574546813960	0.084093779325485229	0.559292554855346680	
61416	-4.778741836547851600	1.020707607269287100	-8.226631164550781300	-0.006523237098008394	-0.401847511529922490	-0.252710819244384770	0.234725221991539000	0.085363171994686127	0.558086693286895750	
61417	-4.679482936859130900	1.188802003860473600	-8.312316894531250000	0.008886554278433323	-0.510077834129333500	-0.253306776285171510	0.237417161464691160	0.085659928619861603	0.555864632129669190	
61418	-4.610194683074951200	0.841779530048370360	-8.356708526611328100	0.055606041103601456	-0.641169190406799320	-0.259264051914215090	0.238571390509605410	0.085126355290412903	0.555908977985382080	
61419	-4.705810546875000000	0.793407320976257320	-8.338378906250000000	0.080761469900608063	-0.727547764778137210	-0.258622676134109500	0.242191031575202940	0.087132394313812256	0.554257929325103760	
61420	-4.583783149719238300	0.843874514102935790	-8.330262184143066400	0.114696383476257320	-0.862032532691955570	-0.259366840124130250	0.246659383177757260	0.087912939488887787	0.554061472415924070	
61421	-4.479517936706543000	0.875505208969116210	-8.383441925048828100	0.152998700737953190	-1.006336688995361300	-0.257976502180099490	0.250811517238616940	0.089248023927211761	0.550480186939239500	
61422	-4.345571994781494100	0.764947354793548580	-8.468234062194824200	0.157638877630233760	-1.173651814460754400	-0.262784510850906370	0.255050390958786010	0.090377092361450195	0.548459053039550780	
61423	-4.188258647918701200	0.706541419029235840	-8.480596542358398400	0.157132208347320560	-1.358582615852356000	-0.261107087135314940	0.263174325227737430	0.092627368867397308	0.547258257865905760	
61424	-4.174126625061035200	0.862622201442718510	-8.287099838256835900	0.194752201437950130	-1.599294066429138200	-0.261232972145080570	0.269870609045028690	0.094668507575988770	0.543399333953857420	
61425	-4.186170101165771500	1.302763938903808600	-8.130868911743164100	0.223838254809379580	-1.811633586883544900	-0.252711623907089230	0.278576493263244630	0.097952261567115784	0.538854897022247310	
61426	-4.137843608856201200	1.684311747550964400	-7.930000782012939500	0.253934264183044430	-2.054569005966186500	-0.251879602670669560	0.289192438125610350	0.102078162133693700	0.534137129783630370	
61427	-4.149281024932861300	1.802935242652893100	-7.823166370391845700	0.351183205842971800	-2.321347236633300800	-0.248199805617332460	0.300151020288467410	0.104608409106731410	0.530979812145233150	
61428	-3.968055963516235400	1.604109883308410600	-7.877820014953613300	0.450140655040740970	-2.596667766571044900	-0.259535282850265500	0.309783250093460080	0.110975593328475950	0.524679601192474370	
61429	-3.599683761596679700	1.142834186553955100	-8.172755241394043000	0.532991111278533940	-2.959457874298095700	-0.269651979207992550	0.324672281742095950	0.116188429296016690	0.516253888607025150	
61430	-2.925272464752197300	0.466369211673736570	-8.200175285339355500	0.559882938861846920	-3.419897079467773400	-0.285953283309936520	0.338359087705612180	0.123373173177242280	0.509220838546752930	
61431	-2.225562810897827100	-0.053946882486343384	-8.030788421630859400	0.528608620166778560	-4.001266479492187500	-0.267367035150527950	0.357964068651199340	0.130112007260322570	0.498147815465927120	
61432	-1.624605894088745100	0.030578719452023506	-7.934172153472900400	0.467999488115310670	-4.744435787200927700	-0.271356344223022460	0.376140534877777100	0.134756043553352360	0.484402418136596680	
61433	-0.891575276851654050	0.663986146450042720	-7.475755691528320300	0.431816756725311280	-5.624481678009033200	-0.277563989162445070	0.400884270668029790	0.144075870513916020	0.464475393295288090	
61434	-1.117181181907653800	0.401775509119033810	-7.251995086669921900	0.395191162824630740	-6.722589492797851600	-0.228075265884399410	0.424570679664611820	0.148924201726913450	0.443951159715652470	
61435	-2.287997484207153300	-1.222405791282653800	-8.675819396972656300	0.119407847523689270	-7.801258563995361300	-0.257005989551544190	0.453669697046279910	0.158101931214332580	0.417194306850433350	
61436	-4.199905872344970700	-2.376464843750000000	-8.335163116455078100	-0.193455338478088380	-8.701578140258789100	-0.278042227029800420	0.483361274003982540	0.164394050836563110	0.384987473487854000	
61437	-10.770143508911133000	-3.109759092330932600	-11.634030342102051000	-0.042050659656524658	-9.330483436584472700	-0.287277698516845700	0.507631897926330570	0.169959023594856260	0.347354561090469360	
61438	-20.371988296508789000	-3.604501485824585000	-13.788380622863770000	0.440582633018493650	-9.298178672790527300	-0.280381053686141970	0.544101357460021970	0.175806134939193730	0.308157473802566530	
61439	-24.794216156005859000	1.762881875038147000	-14.154191970825195000	1.432452321052551300	-9.019016265869140600	-0.299457579851150510	0.561988413333892820	0.184029281139373780	0.270796418190002440	
61440	-27.404546737670898000	2.754640102386474600	-17.001546859741211000	2.460708856582641600	-8.373078346252441400	-0.310373544692993160	0.565683722496032710	0.191351503133773800	0.238287195563316350	
61441	-21.076881408691406000	0.465448230504989620	-13.807107925415039000	3.045972824096679700	-7.775785923004150400	-0.306126475334167480	0.579069733619689940	0.193573728203773500	0.207444071769714360	
61442	-17.885519027709961000	-3.246938943862915000	-17.201894760131836000	3.420933961868286100	-7.569420814514160200	-0.305062174797058110	0.581951916217803960	0.196439683437347410	0.176425367593765260	
61443	-20.586406707763672000	0.801365256309509280	-15.507219314575195000	4.289701938629150400	-6.968174934387207000	-0.289416342973709110	0.594671487808227540	0.194206178188323970	0.152012735605239870	
61444	-22.120418548583984000	-1.975858330726623500	-19.888275146484375000	4.784325122833252000	-5.686086177825927700	-0.316511690616607670	0.599440455436706540	0.188807517290115360	0.131917387247085570	
61445	-14.349444389343262000	-2.944793701171875000	-18.527286529541016000	4.864351272583007800	-4.216333866119384800	-0.296260535717010500	0.583318293094635010	0.182335138320922850	0.115872547030448910	
61446	-11.420997619628906000	-5.338960647583007800	-19.338148117065430000	4.581419467926025400	-3.339375972747802700	-0.284459948539733890	0.578288137912750240	0.167998954653739930	0.108283288776874540	
61447	-10.148549079895020000	-9.553802490234375000	-21.643331527709961000	3.776172399520874000	-2.392997264862060500	-0.287051886320114140	0.567830622196197510	0.152983680367469790	0.104356668889522550	
61448	-6.532426834106445300	-12.037979125976563000	-23.828538894653320000	2.400861024856567400	-1.172927021980285600	-0.263403296470642090	0.567976713180541990	0.132243961095809940	0.111607827246189120	
61449	-2.099332332611084000	-13.321747779846191000	-17.360759735107422000	0.847840964794158940	-0.060565032064914703	-0.276338309049606320	0.548288881778717040	0.111977949738502500	0.116603367030620570	
61450	-7.288372516632080100	-10.447571754455566000	-17.447587966918945000	0.280671566724777220	0.136781364679336550	-0.244117170572280880	0.537714123725891110	0.100739397108554840	0.115167103707790370	
61451	-7.126329898834228500	-7.711282730102539100	-20.011110305786133000	0.138300374150276180	1.107023477554321300	-0.226713582873344420	0.524047136306762700	0.085372060537338257	0.124866135418415070	
61452	-2.880233049392700200	-7.486132144927978500	-17.606357574462891000	-0.079386837780475616	2.061465024948120100	-0.244972646236419680	0.510361015796661380	0.075430355966091156	0.134215578436851500	
61453	-2.064781665802002000	-6.179846763610839800	-15.890710830688477000	-0.361562311649322510	2.832137346267700200	-0.239207386970520020	0.496459126472473140	0.059924066066741943	0.144293233752250670	
61454	-0.495822697877883910	-4.021217823028564500	-12.334986686706543000	-0.478527933359146120	3.390075683593750000	-0.238565415143966670	0.480573087930679320	0.050949126482009888	0.155505344271659850	
61455	0.528187394142150880	-2.618534564971923800	-9.961343765258789100	-0.343160390853881840	3.658286333084106400	-0.229365378618240360	0.480251342058181760	0.040766626596450806	0.168139487504959110	
61456	0.471239387989044190	-0.839925110340118410	-9.024579048156738300	-0.001115168095566332	3.816436529159545900	-0.236722022294998170	0.470053523778915410	0.033109832555055618	0.180378809571266170	
61457	-0.566148221492767330	0.942541718482971190	-8.643418312072753900	0.408728033304214480	4.003506660461425800	-0.238039538264274600	0.461473315954208370	0.026838308200240135	0.191787451505661010	
61458	-1.660842776298522900	2.131775379180908200	-8.313528060913085900	0.916528105735778810	4.241334438323974600	-0.251540035009384160	0.437447279691696170	0.027449961751699448	0.203899025917053220	
61459	-3.075155019760131800	2.428194046020507800	-8.654191970825195300	1.406741619110107400	4.477203845977783200	-0.255360841751098630	0.430547058582305910	0.023533200845122337	0.220199704170227050	
61460	-4.671548843383789100	2.177331686019897500	-9.358864784240722700	1.679853320121765100	4.753196239471435500	-0.269778132438659670	0.433991283178329470	0.018617089837789536	0.233810186386108400	
61461	-5.976947784423828100	1.574350237846374500	-9.842617988586425800	1.694011807441711400	5.080551147460937500	-0.253137737512588500	0.426062196493148800	0.015883073210716248	0.254620939493179320	
61462	-7.326679706573486300	1.260529279708862300	-10.439098358154297000	1.503178477287292500	5.428256988525390600	-0.250170826911926270	0.418651759624481200	0.013874299824237823	0.273251652717590330	
61463	-8.443589210510253900	1.442210078239440900	-10.738812446594238000	1.059879779815673800	5.807664394378662100	-0.222451150417327880	0.405945777893066410	0.010068982839584351	0.300216257572174070	
61464	-8.955725669860839800	2.304544448852539100	-10.221126556396484000	0.669928789138793950	6.159917831420898400	-0.253713756799697880	0.393302202224731450	0.004811950959265232	0.326004058122634890	
61465	-8.963732719421386700	3.790091991424560500	-9.220689773559570300	0.345735490322113040	6.426327228546142600	-0.233997821807861330	0.382755845785140990	0.002351481234654784	0.352679729461669920	
61466	-8.378529548645019500	5.357235908508300800	-7.953294754028320300	0.206793367862701420	6.554317951202392600	-0.231643095612525940	0.364424228668212890	0.002840135945007205	0.382037639617919920	
61467	-7.532086372375488300	6.940041065216064500	-6.758129596710205100	0.259635955095291140	6.564766883850097700	-0.232392117381095890	0.340174883604049680	0.006498951464891434	0.406237602233886720	
61468	-6.962589263916015600	8.158532142639160200	-6.189909934997558600	0.474325209856033330	6.488599300384521500	-0.244271963834762570	0.304135531187057500	0.012201117351651192	0.425544500350952150	
61469	-6.832060337066650400	8.859143257141113300	-6.151968479156494100	0.814548909664154050	6.316762924194335900	-0.250521153211593630	0.275958210229873660	0.021642908453941345	0.436639547348022460	
61470	-7.096073627471923800	8.938046455383300800	-6.386193752288818400	1.137506246566772500	6.141651630401611300	-0.245189175009727480	0.258298099040985110	0.032178863883018494	0.445846408605575560	
61471	-7.405251979827880900	8.549732208251953100	-6.587139606475830100	1.412404060363769500	5.934824466705322300	-0.260962307453155520	0.237906262278556820	0.043314155191183090	0.451957046985626220	
61472	-7.749526023864746100	7.970411300659179700	-6.927139759063720700	1.569164633750915500	5.630091190338134800	-0.247478336095809940	0.221636995673179630	0.054554186761379242	0.453956544399261470	
61473	-8.396997451782226600	7.295068264007568400	-7.750524997711181600	1.646633744239807100	5.341032981872558600	-0.273510664701461790	0.205285295844078060	0.064099207520484924	0.452174603939056400	
61474	-9.443318367004394500	6.573745250701904300	-8.921845436096191400	1.706261038780212400	5.032165527343750000	-0.268857419490814210	0.197904005646705630	0.072564646601676941	0.457511901855468750	
61475	-10.348142623901367000	5.572820186614990200	-10.401188850402832000	1.662682175636291500	4.783337593078613300	-0.265031903982162480	0.186769083142280580	0.078037135303020477	0.466694444417953490	
61476	-11.857316970825195000	4.414588928222656200	-12.922945976257324000	1.589496135711669900	4.547988891601562500	-0.245439574122428890	0.175825908780097960	0.084191575646400452	0.474721610546112060	
61477	-13.952411651611328000	4.096731662750244100	-15.204029083251953000	1.481480836868286100	4.463757038116455100	-0.266215920448303220	0.165954053401947020	0.089658662676811218	0.485904574394226070	
61478	-15.770495414733887000	4.455407619476318400	-15.644906997680664000	1.467671155929565400	4.488176822662353500	-0.279481738805770870	0.170463711023330690	0.095232799649238586	0.497950553894042970	
61479	-17.570529937744141000	4.549037456512451200	-15.137487411499023000	1.634411692619323700	4.488479614257812500	-0.283338218927383420	0.161820754408836360	0.100736625492572780	0.512820720672607420	
61480	-19.469448089599609000	3.607201337814331100	-14.836106300354004000	1.834260225296020500	4.482151031494140600	-0.253879159688949580	0.139847725629806520	0.109237447381019590	0.529621839523315430	
61481	-20.849285125732422000	2.073081254959106400	-13.781955718994141000	1.878474593162536600	4.481966972351074200	-0.279312461614608760	0.128392577171325680	0.116075478494167330	0.546851098537445070	
61482	-22.791446685791016000	1.064177393913269000	-12.777850151062012000	1.791602373123168900	4.424255847930908200	-0.271539479494094850	0.113660834729671480	0.124331556260585780	0.564992487430572510	
61483	-25.561740875244141000	0.874730110168457030	-11.812628746032715000	1.530461788177490200	4.407599925994873000	-0.258512556552886960	0.101577430963516240	0.132547423243522640	0.580128371715545650	
61484	-28.723875045776367000	0.952259361743927000	-9.439188003540039100	1.286761283874511700	4.536993980407714800	-0.259751707315444950	0.082140475511550903	0.140001028776168820	0.596508502960205080	
61485	-31.058013916015625000	-3.488271713256835900	-6.259673118591308600	0.789237022399902340	4.807236194610595700	-0.238168835639953610	0.069425776600837708	0.139043703675270080	0.611808776855468750	
61486	-30.860206604003906000	-4.327473640441894500	0.031026113778352737	-0.099509060382843018	4.966293811798095700	-0.220034554600715640	0.054346624761819839	0.138964310288429260	0.628314971923828130	
61487	-31.074396133422852000	0.784799277782440190	7.178861141204834000	-0.324148237705230710	4.820862293243408200	-0.243223041296005250	0.038921631872653961	0.133817911148071290	0.643210589885711670	
61488	-31.415218353271484000	5.221148967742919900	13.644509315490723000	0.249842584133148190	4.509682655334472700	-0.266655057668685910	-0.022296588867902756	0.136041611433029170	0.653905868530273440	
61489	-30.612068176269531000	5.485561370849609400	18.811983108520508000	1.073762178421020500	4.033082485198974600	-0.227922201156616210	-0.047798842191696167	0.140765115618705750	0.662480890750885010	
61490	-26.779260635375977000	2.640793800354003900	22.584568023681641000	1.532366394996643100	3.166100978851318400	-0.269350767135620120	-0.015639735385775566	0.145529568195343020	0.674640476703643800	
61491	-20.806837081909180000	-2.098287343978881800	23.469289779663086000	1.127190947532653800	1.768043041229248000	-0.263652592897415160	-0.020035976544022560	0.150865957140922550	0.680728554725646970	
61492	-16.401197433471680000	-6.500668525695800800	18.985569000244141000	0.168615847826004030	0.145687490701675420	-0.241727724671363830	-0.020601326599717140	0.150079190731048580	0.686671435832977290	
61493	-7.234134674072265600	-27.308938980102539000	19.593524932861328000	-3.634398460388183600	-1.750720143318176300	-0.206221014261245730	-0.036350570619106293	0.123673975467681880	0.684255361557006840	
61494	-2.129181623458862300	-11.044954299926758000	5.080335617065429700	-5.198109149932861300	-3.859533309936523400	-0.211391866207122800	0.006589709781110287	0.090478651225566864	0.683208465576171880	
61495	1.868192672729492200	6.964159011840820300	-1.602795004844665500	-5.559365272521972700	-3.948938131332397500	-0.226323902606964110	0.030888967216014862	0.058330077677965164	0.682946443557739260	
61496	8.189332008361816400	2.143051624298095700	-13.806164741516113000	-4.600537776947021500	-3.968191862106323200	-0.223594099283218380	0.054901469498872757	0.031980451196432114	0.677522480487823490	
61497	-7.895669460296630900	11.198145866394043000	-9.515618324279785200	-3.792603731155395500	-3.958855152130127000	-0.231993809342384340	0.092954687774181366	0.011230555362999439	0.671430408954620360	
61498	-19.899368286132813000	21.201227188110352000	0.278219461441040040	-2.432932853698730500	-4.153175830841064500	-0.257794409990310670	0.155382677912712100	-0.004888234194368124	0.666394293308258060	
61499	-17.831918716430664000	23.747411727905273000	-5.745808124542236300	-0.946033477783203130	-4.608079433441162100	-0.297547399997711180	0.196905925869941710	-0.007762371562421322	0.658244729042053220	
61500	-16.512889862060547000	26.051073074340820000	-15.084839820861816000	-0.442247003316879270	-4.487920284271240200	-0.287276148796081540	0.200489252805709840	-0.008521211333572865	0.649040877819061280	
61501	-18.204286575317383000	19.149986267089844000	-17.483289718627930000	-0.134246632456779480	-3.942967891693115200	-0.286610156297683720	0.226468548178672790	-0.012973497621715069	0.639838755130767820	
61502	-24.787284851074219000	3.775534629821777300	-20.844654083251953000	-0.189594507217407230	-3.127261877059936500	-0.268381685018539430	0.240796670317649840	-0.021023506298661232	0.632848024368286130	
61503	-16.154817581176758000	-6.162589550018310500	-11.478254318237305000	-0.324257433414459230	-2.099033117294311500	-0.246132135391235350	0.282947838306427000	-0.021764252334833145	0.624481141567230220	
61504	-7.265047073364257800	-12.665423393249512000	-11.624094963073730000	-0.289892435073852540	-1.917416810989379900	-0.247424110770225520	0.295135229825973510	-0.026135394349694252	0.620414614677429200	
61505	-5.039673328399658200	-1.624337434768676800	-10.116060256958008000	-0.760671615600585940	-1.813385367393493700	-0.266648232936859130	0.296109497547149660	-0.031302705407142639	0.612626433372497560	
61506	-12.584552764892578000	7.799952507019043000	-13.214129447937012000	-0.703873574733734130	-1.488709688186645500	-0.253607928752899170	0.302594989538192750	-0.035344369709491730	0.607284784317016600	
61507	-11.287406921386719000	4.635202884674072300	-11.733942031860352000	-0.396569013595581050	-0.742418229579925540	-0.248062074184417720	0.307480722665786740	-0.037884674966335297	0.605392992496490480	
61508	-6.835084438323974600	-0.080672144889831543	-9.105023384094238300	-0.205044060945510860	-0.517909526824951170	-0.252627819776535030	0.317245185375213620	-0.042581457644701004	0.601482212543487550	
61509	-6.675096035003662100	0.356939166784286500	-10.838090896606445000	-0.223639532923698430	-0.430625140666961670	-0.250217646360397340	0.321762174367904660	-0.041856426745653152	0.599859178066253660	
61510	-6.251842498779296900	0.916972100734710690	-9.966506004333496100	-0.328372418880462650	-0.226862117648124690	-0.242674961686134340	0.319378823041915890	-0.046002209186553955	0.598429799079895020	
61511	-5.820386409759521500	1.106616497039794900	-9.335232734680175800	-0.292873114347457890	-0.136146426200866700	-0.259261935949325560	0.318793416023254390	-0.045795921236276627	0.597108483314514160	
61512	-5.330558776855468700	1.777503490447998000	-8.909400939941406200	-0.211707562208175660	-0.116345569491386410	-0.271396249532699580	0.322222083806991580	-0.047103088349103928	0.598930180072784420	
61513	-5.248329162597656200	1.282573461532592800	-8.613909721374511700	-0.151894360780715940	-0.093411155045032501	-0.263808131217956540	0.321364969015121460	-0.048385113477706909	0.597326576709747310	
61514	-5.284670829772949200	0.446450859308242800	-8.505954742431640600	-0.103179097175598140	-0.061620917171239853	-0.260158032178878780	0.321592271327972410	-0.048993729054927826	0.596812188625335690	
61515	-5.173584938049316400	0.823673546314239500	-8.502394676208496100	-0.076534539461135864	-0.071597643196582794	-0.235646098852157590	0.322831362485885620	-0.049490563571453094	0.596081376075744630	
61516	-5.139237880706787100	1.192929267883300800	-8.545680999755859400	-0.063108399510383606	-0.040713459253311157	-0.257793098688125610	0.321584969758987430	-0.049112748354673386	0.596681177616119380	
61517	-5.049005031585693400	0.509691715240478520	-8.643843650817871100	-0.041316568851470947	-0.037400800734758377	-0.247556269168853760	0.322952538728713990	-0.049235865473747253	0.595958530902862550	
61518	-4.960893630981445300	0.052359133958816528	-8.605090141296386700	-0.051653347909450531	-0.039801228791475296	-0.228538170456886290	0.321747332811355590	-0.049284003674983978	0.594998776912689210	
61519	-5.062394618988037100	0.344032078981399540	-8.518877029418945300	-0.071357943117618561	-0.072600558400154114	-0.244003161787986760	0.321248054504394530	-0.050666544586420059	0.595227181911468510	
61520	-5.075763225555419900	0.465880572795867920	-8.509701728820800800	-0.082669682800769806	-0.038583610206842422	-0.260268747806549070	0.322908699512481690	-0.050075687468051910	0.595171332359313960	
61521	-5.048829078674316400	0.347940444946289060	-8.486618995666503900	-0.091160133481025696	-0.005880316253751516	-0.250177085399627690	0.324491769075393680	-0.049402549862861633	0.596021771430969240	
61522	-5.094912528991699200	0.491960197687149050	-8.441855430603027300	-0.119441717863082890	0.010469217784702778	-0.255466014146804810	0.324419289827346800	-0.049587052315473557	0.594718933105468750	
61523	-5.097702026367187500	0.640058219432830810	-8.358416557312011700	-0.100155435502529140	0.041176088154315948	-0.262217968702316280	0.322225272655487060	-0.051392611116170883	0.596690893173217770	
61524	-5.099149703979492200	0.599477469921112060	-8.348035812377929700	-0.093377418816089630	0.018140999600291252	-0.253587245941162110	0.322623372077941890	-0.049664959311485291	0.594643115997314450	
61525	-5.030745983123779300	0.419061720371246340	-8.301563262939453100	-0.103189222514629360	0.045446418225765228	-0.254355520009994510	0.322174549102783200	-0.051471479237079620	0.595779299736022950	
61526	-4.997626304626464800	0.378502905368804930	-8.321105957031250000	-0.091509990394115448	0.043375872075557709	-0.263151228427886960	0.322358638048172000	-0.051662810146808624	0.594487190246582030	
61527	-5.010799407958984400	0.389479726552963260	-8.329650878906250000	-0.110949337482452390	0.047679733484983444	-0.260797381401062010	0.323007434606552120	-0.051309440284967422	0.594646871089935300	
61528	-4.983006000518798800	0.347100973129272460	-8.338208198547363300	-0.111146539449691770	0.039002105593681335	-0.269510477781295780	0.320934861898422240	-0.052231751382350922	0.596500694751739500	
61529	-4.972103118896484400	0.250974506139755250	-8.372328758239746100	-0.120416872203350070	0.018056455999612808	-0.251955419778823850	0.322116672992706300	-0.051417943090200424	0.594738602638244630	
61530	-4.998517513275146500	0.173083871603012080	-8.417849540710449200	-0.168133541941642760	0.035450227558612823	-0.252510488033294680	0.320634603500366210	-0.052813321352005005	0.595704734325408940	
61531	-5.001655101776123000	0.189842075109481810	-8.384963035583496100	-0.192691236734390260	0.013392693363130093	-0.242565900087356570	0.321381151676177980	-0.055705077946186066	0.595324754714965820	
61532	-5.044173240661621100	0.217380687594413760	-8.376186370849609400	-0.240840226411819460	0.034194357693195343	-0.261746913194656370	0.320611566305160520	-0.055558878928422928	0.595293641090393070	
61533	-4.997285842895507800	0.404467433691024780	-8.297249794006347700	-0.247357189655303960	0.046186547726392746	-0.263999700546264650	0.321465730667114260	-0.056296892464160919	0.594544827938079830	
61534	-5.072209358215332000	0.525906860828399660	-8.313522338867187500	-0.249175384640693660	0.053724221885204315	-0.248795628547668460	0.321263343095779420	-0.059872169047594070	0.593211174011230470	
61535	-5.051461219787597700	0.637018859386444090	-8.265607833862304700	-0.280725419521331790	0.051486734300851822	-0.257354259490966800	0.319697558879852290	-0.058915782719850540	0.594970464706420900	
61536	-4.998630523681640600	0.762778162956237790	-8.276324272155761700	-0.330555886030197140	0.054640036076307297	-0.259198129177093510	0.320243954658508300	-0.060731519013643265	0.593291819095611570	
61537	-4.982081890106201200	0.844172239303588870	-8.261259078979492200	-0.254748821258544920	0.073428846895694733	-0.255503118038177490	0.320370972156524660	-0.063374854624271393	0.593277335166931150	
61538	-4.950204372406005900	0.947948753833770750	-8.213747024536132800	-0.231521800160408020	0.041616804897785187	-0.240621626377105710	0.315916329622268680	-0.065803021192550659	0.593721628189086910	
61539	-4.911201953887939500	0.896405279636383060	-8.219112396240234400	-0.186257034540176390	0.046188201755285263	-0.247497588396072390	0.317818492650985720	-0.066337004303932190	0.593407809734344480	
61540	-4.845000267028808600	0.976111769676208500	-8.219930648803710900	-0.187188461422920230	0.034112621098756790	-0.243227452039718630	0.313948541879653930	-0.066214494407176971	0.592857062816619870	
61541	-4.874512672424316400	0.731528043746948240	-8.370688438415527300	-0.153889819979667660	0.013568330556154251	-0.250993400812149050	0.314758569002151490	-0.068420886993408203	0.591316401958465580	
61542	-4.807590007781982400	0.656123459339141850	-8.373516082763671900	-0.155779376626014710	0.041161261498928070	-0.280276060104370120	0.312193930149078370	-0.070732429623603821	0.593528687953948970	
